{
    "resourceType": "Bundle",
    "id": "8b5253a2-7fbe-4589-a4e5-4f974064a230",
    "meta": {
        "lastUpdated": "2021-04-22T15:57:40.783+02:00",
        "profile": [
            "https://fhir.nhs.uk/STU3/StructureDefinition/ITK-Message-Bundle-1"
        ]
    },
    "identifier": {
        "system": "https://tools.ietf.org/html/rfc4122",
        "value": "be23626b-083e-4adc-99e0-1e4bfe1ceb2b"
    },
    "type": "message",
    "entry": [
        {
            "fullUrl": "urn:uuid:3f762977-0358-4311-950e-202b123e2051",
            "resource": {
                "resourceType": "MessageHeader",
                "id": "3f762977-0358-4311-950e-202b123e2051",
                "meta": {
                    "profile": [
                        "https://fhir.nhs.uk/STU3/StructureDefinition/ITK-MessageHeader-2"
                    ]
                },
                "extension": [
                    {
                        "url": "https://fhir.nhs.uk/STU3/StructureDefinition/Extension-ITK-MessageHandling-2",
                        "extension": [
                            {
                                "url": "BusAckRequested",
                                "valueBoolean": true
                            },
                            {
                                "url": "InfAckRequested",
                                "valueBoolean": true
                            },
                            {
                                "url": "RecipientType",
                                "valueCoding": {
                                    "system": "https://fhir.nhs.uk/STU3/CodeSystem/ITK-RecipientType-1",
                                    "code": "FA",
                                    "display": "For Action"
                                }
                            },
                            {
                                "url": "SenderReference",
                                "valueString": "None"
                            },
                            {
                                "url": "LocalExtension",
                                "valueString": "None"
                            }
                        ]
                    }
                ],
                "event": {
                    "system": "https://fhir.nhs.uk/STU3/CodeSystem/ITK-MessageEvent-2",
                    "code": "ITK012M",
                    "display": "ITK National Pathology"
                },
                "receiver": {
                    "reference": "urn:uuid:39a4df93-b7f3-47ee-89c1-91799b25bddd"
                },
                "sender": {
                    "reference": "urn:uuid:e6bd1dd9-3ae0-4f00-88a9-3d6bb15ed88a"
                },
                "timestamp": "2010-03-01T18:51:00.000+00:00",
                "source": {
                    "endpoint": "lab_results_mailbox"
                },
                "responsible": {
                    "reference": "urn:uuid:e6bd1dd9-3ae0-4f00-88a9-3d6bb15ed88a"
                },
                "focus": [
                    {
                        "reference": "urn:uuid:f742740d-a1d9-490a-8978-1073c7682ebd"
                    }
                ]
            }
        },
        {
            "fullUrl": "urn:uuid:dc1dc784-3838-4a94-be83-ee2e67c35f43",
            "resource": {
                "resourceType": "Patient",
                "id": "dc1dc784-3838-4a94-be83-ee2e67c35f43",
                "meta": {
                    "profile": [
                        "https://fhir.hl7.org.uk/STU3/StructureDefinition/CareConnect-Patient-1"
                    ]
                },
                "identifier": [
                    {
                        "system": "https://fhir.nhs.uk/Id/nhs-number",
                        "value": "9435518443"
                    }
                ],
                "name": [
                    {
                        "family": "TSUEI",
                        "given": [
                            "MINGYU"
                        ]
                    }
                ],
                "gender": "female",
                "birthDate": "1967-05-31"
            }
        },
        {
            "fullUrl": "urn:uuid:b4c6fbe0-597f-481a-9e29-95cbb9cd0d0a",
            "resource": {
                "resourceType": "Practitioner",
                "id": "b4c6fbe0-597f-481a-9e29-95cbb9cd0d0a",
                "meta": {
                    "profile": [
                        "https://fhir.hl7.org.uk/STU3/StructureDefinition/CareConnect-Practitioner-1"
                    ]
                },
                "name": [
                    {
                        "text": "SCOTT"
                    }
                ]
            }
        },
        {
            "fullUrl": "urn:uuid:39a4df93-b7f3-47ee-89c1-91799b25bddd",
            "resource": {
                "resourceType": "Organization",
                "id": "39a4df93-b7f3-47ee-89c1-91799b25bddd",
                "meta": {
                    "profile": [
                        "https://fhir.hl7.org.uk/STU3/StructureDefinition/CareConnect-Organization-1"
                    ]
                },
                "name": "NORTH DOWN GP"
            }
        },
        {
            "fullUrl": "urn:uuid:cf501617-7737-4392-908d-38e11cd16895",
            "resource": {
                "resourceType": "Practitioner",
                "id": "cf501617-7737-4392-908d-38e11cd16895",
                "meta": {
                    "profile": [
                        "https://fhir.hl7.org.uk/STU3/StructureDefinition/CareConnect-Practitioner-1"
                    ]
                },
                "identifier": [
                    {
                        "system": "https://fhir.nhs.uk/Id/sds-user-id",
                        "value": "C1357930"
                    }
                ],
                "name": [
                    {
                        "text": "DR C CURLEY"
                    }
                ]
            }
        },
        {
            "fullUrl": "urn:uuid:e6bd1dd9-3ae0-4f00-88a9-3d6bb15ed88a",
            "resource": {
                "resourceType": "Organization",
                "id": "e6bd1dd9-3ae0-4f00-88a9-3d6bb15ed88a",
                "meta": {
                    "profile": [
                        "https://fhir.hl7.org.uk/STU3/StructureDefinition/CareConnect-Organization-1"
                    ]
                },
                "type": [
                    {
                        "coding": [
                            {
                                "code": "dept",
                                "display": "Microbiology"
                            }
                        ]
                    }
                ],
                "name": "ST JAMES'S UNIVERSITY HOSPITAL"
            }
        },
        {
            "fullUrl": "urn:uuid:2683af41-1e3a-47c5-832a-8d5e568f6afb",
            "resource": {
                "resourceType": "ProcedureRequest",
                "id": "2683af41-1e3a-47c5-832a-8d5e568f6afb",
                "meta": {
                    "profile": [
                        "https://fhir.hl7.org.uk/STU3/StructureDefinition/CareConnect-ProcedureRequest-1"
                    ]
                },
                "intent": "order",
                "code": {
                    "text": "unknown"
                },
                "subject": {
                    "reference": "urn:uuid:dc1dc784-3838-4a94-be83-ee2e67c35f43"
                },
                "requester": {
                    "agent": {
                        "reference": "urn:uuid:b4c6fbe0-597f-481a-9e29-95cbb9cd0d0a"
                    },
                    "onBehalfOf": {
                        "reference": "urn:uuid:39a4df93-b7f3-47ee-89c1-91799b25bddd"
                    }
                },
                "performer": {
                    "reference": "urn:uuid:cf501617-7737-4392-908d-38e11cd16895"
                }
            }
        },
        {
            "fullUrl": "urn:uuid:f742740d-a1d9-490a-8978-1073c7682ebd",
            "resource": {
                "resourceType": "DiagnosticReport",
                "id": "f742740d-a1d9-490a-8978-1073c7682ebd",
                "meta": {
                    "profile": [
                        "https://fhir.hl7.org.uk/STU3/StructureDefinition/CareConnect-DiagnosticReport-1"
                    ]
                },
                "identifier": [
                    {
                        "system": "https://tools.ietf.org/html/rfc4122",
                        "value": "15/CH000063K/200010191704"
                    }
                ],
                "basedOn": [
                    {
                        "reference": "urn:uuid:2683af41-1e3a-47c5-832a-8d5e568f6afb"
                    }
                ],
                "status": "unknown",
                "code": {
                    "coding": [
                        {
                            "system": "http://snomed.info/sct",
                            "code": "721981007",
                            "display": "Diagnostic studies report"
                        }
                    ]
                },
                "subject": {
                    "reference": "urn:uuid:dc1dc784-3838-4a94-be83-ee2e67c35f43"
                },
                "issued": "2010-02-25T15:41:00.000+00:00",
                "performer": [
                    {
                        "actor": {
                            "reference": "urn:uuid:e6bd1dd9-3ae0-4f00-88a9-3d6bb15ed88a"
                        }
                    },
                    {
                        "actor": {
                            "reference": "urn:uuid:cf501617-7737-4392-908d-38e11cd16895"
                        }
                    }
                ]
            }
        }
    ]
}