{
  "resourceType": "Bundle",
  "id": "44e7d979-bfc4-4755-9381-9f439bdcacec",
  "meta": {
    "lastUpdated": "2021-02-24T14:21:45.512+00:00",
    "profile": [
      "https://fhir.nhs.uk/STU3/StructureDefinition/ITK-Message-Bundle-1"
    ]
  },
  "identifier": {
    "system": "https://tools.ietf.org/html/rfc4122",
    "value": "228daa53-e7e3-48ed-ad62-fa7e4cd07b3c"
  },
  "type": "message",
  "entry": [
    {
      "fullUrl": "urn:uuid:eea77c68-0d47-412c-a7bc-321583a2c75f",
      "resource": {
        "resourceType": "Patient",
        "id": "eea77c68-0d47-412c-a7bc-321583a2c75f",
        "identifier": [
          {
            "system": "https://fhir.nhs.uk/Id/nhs-number",
            "value": "9435505600"
          }
        ],
        "name": [
          {
            "family": "HENDERSON"
          }
        ],
        "gender": "female",
        "address": [
          {
            "line": [
              "4-5",
              "WESLEY PLACE",
              "SOWERBY BRIDGE"
            ],
            "postalCode": "HX6 1JQ"
          }
        ]
      }
    },
    {
      "fullUrl": "urn:uuid:b6909753-80ec-41d7-b269-4c12e7c7b906",
      "resource": {
        "resourceType": "Practitioner",
        "id": "b6909753-80ec-41d7-b269-4c12e7c7b906",
        "identifier": [
          {
            "system": "https://fhir.nhs.uk/Id/sds-user-id",
            "value": "G3380314"
          }
        ],
        "name": [
          {
            "text": "SCOTT"
          }
        ]
      }
    },
    {
      "fullUrl": "urn:uuid:1395dd50-5440-424c-bd30-a2f62e3e24c3",
      "resource": {
        "resourceType": "Organization",
        "id": "1395dd50-5440-424c-bd30-a2f62e3e24c3",
        "name": "NORTH DOWN GP"
      }
    },
    {
      "fullUrl": "urn:uuid:d5229278-191d-4801-9332-2faae4e9761d",
      "resource": {
        "resourceType": "Organization",
        "id": "d5229278-191d-4801-9332-2faae4e9761d",
        "type": [
          {
            "coding": [
              {
                "code": "dept",
                "display": "Microbiology"
              }
            ]
          }
        ],
        "name": "ST JAMES'S UNIVERSITY HOSPITAL"
      }
    },
    {
      "fullUrl": "urn:uuid:1c2ffccb-186a-4193-a12e-f1b2c0bb6cee",
      "resource": {
        "resourceType": "DiagnosticReport",
        "id": "1c2ffccb-186a-4193-a12e-f1b2c0bb6cee",
        "identifier": [ {
          "value": "15/CH000038L/200010191704"
        } ],
        "status": "unknown",
        "code": {
          "coding": [ {
            "system": "http://snomed.info/sct",
            "code": "721981007",
            "display": "Diagnostic studies report"
          } ]
        },
        "subject": {
          "reference": "urn:uuid:eea77c68-0d47-412c-a7bc-321583a2c75f"
        },
        "issued": "2010-02-25T15:41:00.000+00:00",
        "performer": [ {
          "actor": {
            "reference": "urn:uuid:d5229278-191d-4801-9332-2faae4e9761d"
          }
        } ],
        "specimen": [ {
          "reference": "urn:uuid:34a0625d-5517-42a2-99c3-3a621c989c73"
        } ],
        "result": [ {
          "reference": "urn:uuid:6d53dfea-9ed1-405c-964c-ab32197251e7"
        } ]
      }
    },
    {
      "fullUrl": "urn:uuid:34a0625d-5517-42a2-99c3-3a621c989c73",
      "resource": {
        "resourceType": "Specimen",
        "id": "34a0625d-5517-42a2-99c3-3a621c989c73",
        "type": {
          "coding": [
            {
              "system": "http://snomed.info/sct",
              "display": "VENOUS BLOOD"
            }
          ]
        },
        "subject": {
          "reference": "urn:uuid:eea77c68-0d47-412c-a7bc-321583a2c75f"
        },
        "receivedTime": "2010-02-24T15:41:00+00:00"
      }
    },
    {
      "fullUrl": "urn:uuid:6d53dfea-9ed1-405c-964c-ab32197251e7",
      "resource": {
        "resourceType": "Observation",
        "id": "6d53dfea-9ed1-405c-964c-ab32197251e7",
        "status": "unknown",
        "code": {
          "coding": [
            {
              "system": "http://loinc.org",
              "code": "43F3.",
              "display": "R.A. latex test"
            }
          ]
        },
        "comment": "NEGATIVE"
      }
    }
  ]
}
