{
    "resourceType": "Bundle",
    "id": "f6afe7cd-090a-4b97-99cb-088e12f821a6",
    "meta": {
        "lastUpdated": "2021-06-08T10:47:52.871+01:00",
        "profile": [
            "https://fhir.nhs.uk/STU3/StructureDefinition/ITK-Message-Bundle-1"
        ]
    },
    "identifier": {
        "system": "https://tools.ietf.org/html/rfc4122",
        "value": "432b3879-6505-4a21-b634-af9de1158337"
    },
    "type": "message",
    "entry": [
        {
            "fullUrl": "urn:uuid:84016022-f0fe-4989-81dc-7b8c4c687276",
            "resource": {
                "resourceType": "MessageHeader",
                "id": "84016022-f0fe-4989-81dc-7b8c4c687276",
                "meta": {
                    "profile": [
                        "https://fhir.nhs.uk/STU3/StructureDefinition/ITK-MessageHeader-2"
                    ]
                },
                "extension": [
                    {
                        "url": "https://fhir.nhs.uk/STU3/StructureDefinition/Extension-ITK-MessageHandling-2",
                        "extension": [
                            {
                                "url": "BusAckRequested",
                                "valueBoolean": true
                            },
                            {
                                "url": "InfAckRequested",
                                "valueBoolean": true
                            },
                            {
                                "url": "RecipientType",
                                "valueCoding": {
                                    "system": "https://fhir.nhs.uk/STU3/CodeSystem/ITK-RecipientType-1",
                                    "code": "FA",
                                    "display": "For Action"
                                }
                            },
                            {
                                "url": "SenderReference",
                                "valueString": "None"
                            },
                            {
                                "url": "LocalExtension",
                                "valueString": "None"
                            }
                        ]
                    }
                ],
                "event": {
                    "system": "https://fhir.nhs.uk/STU3/CodeSystem/ITK-MessageEvent-2",
                    "code": "ITK012M",
                    "display": "ITK National Pathology"
                },
                "receiver": {
                    "reference": "urn:uuid:59d822c8-4bce-4fc9-ab64-d7d83c75f765"
                },
                "sender": {
                    "reference": "urn:uuid:f0ac7d8b-8d83-4860-920d-6b53d7820038"
                },
                "timestamp": "2010-03-01T17:51:00.000+00:00",
                "source": {
                    "endpoint": "lab_results_mailbox"
                },
                "responsible": {
                    "reference": "urn:uuid:f0ac7d8b-8d83-4860-920d-6b53d7820038"
                },
                "focus": [
                    {
                        "reference": "urn:uuid:3861e3e0-bf75-4f33-87c9-805ee2526848"
                    }
                ]
            }
        },
        {
            "fullUrl": "urn:uuid:fb22d802-49f7-419f-ace3-9d21d3046ec2",
            "resource": {
                "resourceType": "Patient",
                "id": "fb22d802-49f7-419f-ace3-9d21d3046ec2",
                "meta": {
                    "profile": [
                        "https://fhir.hl7.org.uk/STU3/StructureDefinition/CareConnect-Patient-1"
                    ]
                },
                "identifier": [
                    {
                        "extension": [
                            {
                                "url": "https://fhir.hl7.org.uk/STU3/StructureDefinition/Extension-CareConnect-NHSNumberVerificationStatus-1",
                                "valueCodeableConcept": {
                                    "coding": [
                                        {
                                            "system": "https://fhir.hl7.org.uk/STU3/CodeSystem/CareConnect-NHSNumberVerificationStatus-1",
                                            "code": "01",
                                            "display": "Number present and verified"
                                        }
                                    ]
                                }
                            }
                        ],
                        "system": "https://fhir.nhs.uk/Id/nhs-number",
                        "value": "9435492908"
                    }
                ],
                "name": [
                    {
                        "use": "official",
                        "family": "AZIZ",
                        "given": [
                            "NISMA"
                        ]
                    }
                ],
                "gender": "female",
                "birthDate": "1945-07-30",
                "address": [
                    {
                        "line": [
                            "FLAT1",
                            "59 SANDTOFT ROAD",
                            "BELTON",
                            "DONCASTER"
                        ],
                        "postalCode": "DN9 1PJ"
                    }
                ]
            }
        },
        {
            "fullUrl": "urn:uuid:09c2e9cb-750f-44c9-8ca1-8dc08ac30bf6",
            "resource": {
                "resourceType": "Practitioner",
                "id": "09c2e9cb-750f-44c9-8ca1-8dc08ac30bf6",
                "meta": {
                    "profile": [
                        "https://fhir.hl7.org.uk/STU3/StructureDefinition/CareConnect-Practitioner-1"
                    ]
                },
                "identifier": [
                    {
                        "value": "G3380314"
                    }
                ],
                "name": [
                    {
                        "text": "SCOTT"
                    }
                ]
            }
        },
        {
            "fullUrl": "urn:uuid:59d822c8-4bce-4fc9-ab64-d7d83c75f765",
            "resource": {
                "resourceType": "Organization",
                "id": "59d822c8-4bce-4fc9-ab64-d7d83c75f765",
                "meta": {
                    "profile": [
                        "https://fhir.hl7.org.uk/STU3/StructureDefinition/CareConnect-Organization-1"
                    ]
                },
                "name": "NORTH DOWN GP"
            }
        },
        {
            "fullUrl": "urn:uuid:0141db77-2cad-4d41-ab72-7302bfa3875c",
            "resource": {
                "resourceType": "Practitioner",
                "id": "0141db77-2cad-4d41-ab72-7302bfa3875c",
                "meta": {
                    "profile": [
                        "https://fhir.hl7.org.uk/STU3/StructureDefinition/CareConnect-Practitioner-1"
                    ]
                }
            }
        },
        {
            "fullUrl": "urn:uuid:f0ac7d8b-8d83-4860-920d-6b53d7820038",
            "resource": {
                "resourceType": "Organization",
                "id": "f0ac7d8b-8d83-4860-920d-6b53d7820038",
                "meta": {
                    "profile": [
                        "https://fhir.hl7.org.uk/STU3/StructureDefinition/CareConnect-Organization-1"
                    ]
                },
                "type": [
                    {
                        "coding": [
                            {
                                "code": "dept",
                                "display": "Microbiology"
                            }
                        ]
                    }
                ],
                "name": "ST JAMES'S UNIVERSITY HOSPITAL"
            }
        },
        {
            "fullUrl": "urn:uuid:76ab8c37-11c5-485e-a928-a52025cc2522",
            "resource": {
                "resourceType": "ProcedureRequest",
                "id": "76ab8c37-11c5-485e-a928-a52025cc2522",
                "meta": {
                    "profile": [
                        "https://fhir.hl7.org.uk/STU3/StructureDefinition/CareConnect-ProcedureRequest-1"
                    ]
                },
                "status": "active",
                "intent": "order",
                "code": {
                    "coding": [
                        {
                            "system": "http://snomed.info/sct",
                            "code": "15220000",
                            "display": "Laboratory test (procedure)"
                        }
                    ]
                },
                "subject": {
                    "reference": "urn:uuid:fb22d802-49f7-419f-ace3-9d21d3046ec2"
                },
                "requester": {
                    "agent": {
                        "reference": "urn:uuid:09c2e9cb-750f-44c9-8ca1-8dc08ac30bf6"
                    },
                    "onBehalfOf": {
                        "reference": "urn:uuid:59d822c8-4bce-4fc9-ab64-d7d83c75f765"
                    }
                },
                "performer": {
                    "reference": "urn:uuid:0141db77-2cad-4d41-ab72-7302bfa3875c"
                },
                "note": [
                    {
                        "text": "TIRED ALL THE TIME, LOW Hb"
                    },
                    {
                        "text": "COELIAC"
                    }
                ]
            }
        },
        {
            "fullUrl": "urn:uuid:3861e3e0-bf75-4f33-87c9-805ee2526848",
            "resource": {
                "resourceType": "DiagnosticReport",
                "id": "3861e3e0-bf75-4f33-87c9-805ee2526848",
                "meta": {
                    "profile": [
                        "https://fhir.hl7.org.uk/STU3/StructureDefinition/CareConnect-DiagnosticReport-1"
                    ]
                },
                "identifier": [
                    {
                        "system": "https://tools.ietf.org/html/rfc4122",
                        "value": "15/CH000037K/200010191704"
                    }
                ],
                "basedOn": [
                    {
                        "reference": "urn:uuid:76ab8c37-11c5-485e-a928-a52025cc2522"
                    }
                ],
                "status": "appended",
                "code": {
                    "coding": [
                        {
                            "system": "http://snomed.info/sct",
                            "code": "721981007",
                            "display": "Diagnostic studies report"
                        }
                    ]
                },
                "subject": {
                    "reference": "urn:uuid:fb22d802-49f7-419f-ace3-9d21d3046ec2"
                },
                "issued": "2010-02-25T15:41:00.000+00:00",
                "performer": [
                    {
                        "actor": {
                            "reference": "urn:uuid:f0ac7d8b-8d83-4860-920d-6b53d7820038"
                        }
                    },
                    {
                        "actor": {
                            "reference": "urn:uuid:0141db77-2cad-4d41-ab72-7302bfa3875c"
                        }
                    }
                ],
                "specimen": [
                    {
                        "reference": "urn:uuid:41ea79a2-f207-482a-ac07-3ee6a0b40339"
                    }
                ],
                "result": [
                    {
                        "reference": "urn:uuid:38615efe-a7e0-4d6d-aac3-c2a2bf03b69a"
                    }
                ]
            }
        },
        {
            "fullUrl": "urn:uuid:41ea79a2-f207-482a-ac07-3ee6a0b40339",
            "resource": {
                "resourceType": "Specimen",
                "id": "41ea79a2-f207-482a-ac07-3ee6a0b40339",
                "meta": {
                    "profile": [
                        "https://fhir.hl7.org.uk/STU3/StructureDefinition/CareConnect-Specimen-1"
                    ]
                },
                "accessionIdentifier": {
                    "value": "CH000037KA"
                },
                "type": {
                    "coding": [
                        {
                            "display": "VENOUS BLOOD"
                        }
                    ]
                },
                "subject": {
                    "reference": "urn:uuid:fb22d802-49f7-419f-ace3-9d21d3046ec2"
                },
                "receivedTime": "2010-02-24T15:41:00+00:00",
                "collection": {
                    "collectedDateTime": "2010-02-23T15:41:00+00:00"
                }
            }
        },
        {
            "fullUrl": "urn:uuid:38615efe-a7e0-4d6d-aac3-c2a2bf03b69a",
            "resource": {
                "resourceType": "Observation",
                "id": "38615efe-a7e0-4d6d-aac3-c2a2bf03b69a",
                "meta": {
                    "profile": [
                        "https://fhir.hl7.org.uk/STU3/StructureDefinition/CareConnect-Observation-1"
                    ]
                },
                "status": "unknown",
                "code": {
                    "coding": [
                        {
                            "system": "http://read.info/readv2",
                            "code": "42R4.",
                            "display": "Serum ferritin"
                        }
                    ]
                },
                "subject": {
                    "reference": "urn:uuid:fb22d802-49f7-419f-ace3-9d21d3046ec2"
                },
                "performer": [
                    {
                        "reference": "urn:uuid:f0ac7d8b-8d83-4860-920d-6b53d7820038"
                    },
                    {
                        "reference": "urn:uuid:0141db77-2cad-4d41-ab72-7302bfa3875c"
                    }
                ],
                "valueQuantity": {
                    "value": 11,
                    "unit": "ng/mL"
                },
                "specimen": {
                    "reference": "urn:uuid:41ea79a2-f207-482a-ac07-3ee6a0b40339"
                },
                "referenceRange": [
                    {
                        "low": {
                            "value": 10
                        },
                        "high": {
                            "value": 200
                        }
                    }
                ]
            }
        }
    ]
}