{
    "resourceType": "Bundle",
    "id": "c54b06fd-c128-4bad-9967-5433e39e8705",
    "meta": {
        "lastUpdated": "2021-06-07T10:18:28.989+01:00",
        "profile": [
            "https://fhir.nhs.uk/STU3/StructureDefinition/ITK-Message-Bundle-1"
        ]
    },
    "identifier": {
        "system": "https://tools.ietf.org/html/rfc4122",
        "value": "bb157b47-cb1e-47b0-857c-a1cc059ebdb3"
    },
    "type": "message",
    "entry": [
        {
            "fullUrl": "urn:uuid:7d38f257-85a2-4e3c-9986-3cacf9b93e7a",
            "resource": {
                "resourceType": "MessageHeader",
                "id": "7d38f257-85a2-4e3c-9986-3cacf9b93e7a",
                "meta": {
                    "profile": [
                        "https://fhir.nhs.uk/STU3/StructureDefinition/ITK-MessageHeader-2"
                    ]
                },
                "extension": [
                    {
                        "url": "https://fhir.nhs.uk/STU3/StructureDefinition/Extension-ITK-MessageHandling-2",
                        "extension": [
                            {
                                "url": "BusAckRequested",
                                "valueBoolean": true
                            },
                            {
                                "url": "InfAckRequested",
                                "valueBoolean": true
                            },
                            {
                                "url": "RecipientType",
                                "valueCoding": {
                                    "system": "https://fhir.nhs.uk/STU3/CodeSystem/ITK-RecipientType-1",
                                    "code": "FA",
                                    "display": "For Action"
                                }
                            },
                            {
                                "url": "SenderReference",
                                "valueString": "None"
                            },
                            {
                                "url": "LocalExtension",
                                "valueString": "None"
                            }
                        ]
                    }
                ],
                "event": {
                    "system": "https://fhir.nhs.uk/STU3/CodeSystem/ITK-MessageEvent-2",
                    "code": "ITK012M",
                    "display": "ITK National Pathology"
                },
                "receiver": {
                    "reference": "urn:uuid:2a4f5446-58a1-49c3-8f56-fb45f7a05a8c"
                },
                "sender": {
                    "reference": "urn:uuid:3dc32b79-7e9b-415d-ad17-1b923b068633"
                },
                "timestamp": "2010-03-01T17:51:00.000+00:00",
                "source": {
                    "endpoint": "lab_results_mailbox"
                },
                "responsible": {
                    "reference": "urn:uuid:3dc32b79-7e9b-415d-ad17-1b923b068633"
                },
                "focus": [
                    {
                        "reference": "urn:uuid:5434334a-f56e-4b8a-9979-7208b3109d19"
                    }
                ]
            }
        },
        {
            "fullUrl": "urn:uuid:d325cb18-8a83-4d83-972f-f0204ba2988e",
            "resource": {
                "resourceType": "Patient",
                "id": "d325cb18-8a83-4d83-972f-f0204ba2988e",
                "meta": {
                    "profile": [
                        "https://fhir.hl7.org.uk/STU3/StructureDefinition/CareConnect-Patient-1"
                    ]
                },
                "identifier": [
                    {
                        "extension": [
                            {
                                "url": "https://fhir.hl7.org.uk/STU3/StructureDefinition/Extension-CareConnect-NHSNumberVerificationStatus-1",
                                "valueCodeableConcept": {
                                    "coding": [
                                        {
                                            "system": "https://fhir.hl7.org.uk/STU3/CodeSystem/CareConnect-NHSNumberVerificationStatus-1",
                                            "code": "01",
                                            "display": "Number present and verified"
                                        }
                                    ]
                                }
                            }
                        ],
                        "system": "https://fhir.nhs.uk/Id/nhs-number",
                        "value": "9435505600"
                    }
                ],
                "name": [
                    {
                        "use": "official",
                        "family": "HENDERSON"
                    }
                ],
                "gender": "female",
                "address": [
                    {
                        "line": [
                            "4-5",
                            "WESLEY PLACE",
                            "SOWERBY BRIDGE"
                        ],
                        "postalCode": "HX6 1JQ"
                    }
                ]
            }
        },
        {
            "fullUrl": "urn:uuid:4ca4e179-5578-4a72-b09a-153341d4473d",
            "resource": {
                "resourceType": "Practitioner",
                "id": "4ca4e179-5578-4a72-b09a-153341d4473d",
                "meta": {
                    "profile": [
                        "https://fhir.hl7.org.uk/STU3/StructureDefinition/CareConnect-Practitioner-1"
                    ]
                },
                "identifier": [
                    {
                        "system": "https://fhir.nhs.uk/Id/sds-user-id",
                        "value": "G3380314"
                    }
                ],
                "name": [
                    {
                        "text": "SCOTT"
                    }
                ]
            }
        },
        {
            "fullUrl": "urn:uuid:2a4f5446-58a1-49c3-8f56-fb45f7a05a8c",
            "resource": {
                "resourceType": "Organization",
                "id": "2a4f5446-58a1-49c3-8f56-fb45f7a05a8c",
                "meta": {
                    "profile": [
                        "https://fhir.hl7.org.uk/STU3/StructureDefinition/CareConnect-Organization-1"
                    ]
                },
                "name": "NORTH DOWN GP"
            }
        },
        {
            "fullUrl": "urn:uuid:211829e5-ce55-414a-8125-eca37db8d21c",
            "resource": {
                "resourceType": "Practitioner",
                "id": "211829e5-ce55-414a-8125-eca37db8d21c",
                "meta": {
                    "profile": [
                        "https://fhir.hl7.org.uk/STU3/StructureDefinition/CareConnect-Practitioner-1"
                    ]
                }
            }
        },
        {
            "fullUrl": "urn:uuid:3dc32b79-7e9b-415d-ad17-1b923b068633",
            "resource": {
                "resourceType": "Organization",
                "id": "3dc32b79-7e9b-415d-ad17-1b923b068633",
                "meta": {
                    "profile": [
                        "https://fhir.hl7.org.uk/STU3/StructureDefinition/CareConnect-Organization-1"
                    ]
                },
                "type": [
                    {
                        "coding": [
                            {
                                "code": "dept",
                                "display": "Microbiology"
                            }
                        ]
                    }
                ],
                "name": "ST JAMES'S UNIVERSITY HOSPITAL"
            }
        },
        {
            "fullUrl": "urn:uuid:891353da-6ad8-4360-a3fb-efca27da91e1",
            "resource": {
                "resourceType": "ProcedureRequest",
                "id": "891353da-6ad8-4360-a3fb-efca27da91e1",
                "meta": {
                    "profile": [
                        "https://fhir.hl7.org.uk/STU3/StructureDefinition/CareConnect-ProcedureRequest-1"
                    ]
                },
                "status": "unknown",
                "intent": "order",
                "code": {
                    "text": "unknown"
                },
                "subject": {
                    "reference": "urn:uuid:d325cb18-8a83-4d83-972f-f0204ba2988e"
                },
                "requester": {
                    "agent": {
                        "reference": "urn:uuid:4ca4e179-5578-4a72-b09a-153341d4473d"
                    },
                    "onBehalfOf": {
                        "reference": "urn:uuid:2a4f5446-58a1-49c3-8f56-fb45f7a05a8c"
                    }
                },
                "performer": {
                    "reference": "urn:uuid:211829e5-ce55-414a-8125-eca37db8d21c"
                },
                "note": [
                    {
                        "text": "PAINS HANDS AND FEET."
                    }
                ]
            }
        },
        {
            "fullUrl": "urn:uuid:5434334a-f56e-4b8a-9979-7208b3109d19",
            "resource": {
                "resourceType": "DiagnosticReport",
                "id": "5434334a-f56e-4b8a-9979-7208b3109d19",
                "meta": {
                    "profile": [
                        "https://fhir.hl7.org.uk/STU3/StructureDefinition/CareConnect-DiagnosticReport-1"
                    ]
                },
                "identifier": [
                    {
                        "system": "https://tools.ietf.org/html/rfc4122",
                        "value": "15/CH000038L/200010191704"
                    }
                ],
                "basedOn": [
                    {
                        "reference": "urn:uuid:891353da-6ad8-4360-a3fb-efca27da91e1"
                    }
                ],
                "status": "preliminary",
                "code": {
                    "coding": [
                        {
                            "system": "http://snomed.info/sct",
                            "code": "721981007",
                            "display": "Diagnostic studies report"
                        }
                    ]
                },
                "subject": {
                    "reference": "urn:uuid:d325cb18-8a83-4d83-972f-f0204ba2988e"
                },
                "issued": "2010-02-25T15:41:00.000+00:00",
                "performer": [
                    {
                        "actor": {
                            "reference": "urn:uuid:3dc32b79-7e9b-415d-ad17-1b923b068633"
                        }
                    },
                    {
                        "actor": {
                            "reference": "urn:uuid:211829e5-ce55-414a-8125-eca37db8d21c"
                        }
                    }
                ],
                "specimen": [
                    {
                        "reference": "urn:uuid:7a3c7653-001c-4662-939a-0f85fe15b1f1"
                    }
                ],
                "result": [
                    {
                        "reference": "urn:uuid:0da9fcc4-2753-4c9e-95be-f94c5a6e51b9"
                    }
                ]
            }
        },
        {
            "fullUrl": "urn:uuid:7a3c7653-001c-4662-939a-0f85fe15b1f1",
            "resource": {
                "resourceType": "Specimen",
                "id": "7a3c7653-001c-4662-939a-0f85fe15b1f1",
                "meta": {
                    "profile": [
                        "https://fhir.hl7.org.uk/STU3/StructureDefinition/CareConnect-Specimen-1"
                    ]
                },
                "type": {
                    "coding": [
                        {
                            "system": "http://snomed.info/sct",
                            "display": "VENOUS BLOOD"
                        }
                    ]
                },
                "subject": {
                    "reference": "urn:uuid:d325cb18-8a83-4d83-972f-f0204ba2988e"
                },
                "receivedTime": "2010-02-24T15:41:00+00:00"
            }
        },
        {
            "fullUrl": "urn:uuid:0da9fcc4-2753-4c9e-95be-f94c5a6e51b9",
            "resource": {
                "resourceType": "Observation",
                "id": "0da9fcc4-2753-4c9e-95be-f94c5a6e51b9",
                "meta": {
                    "profile": [
                        "https://fhir.hl7.org.uk/STU3/StructureDefinition/CareConnect-Observation-1"
                    ]
                },
                "status": "unknown",
                "code": {
                    "coding": [
                        {
                            "system": "http://read.info/readv2",
                            "code": "43F3.",
                            "display": "R.A. latex test"
                        }
                    ]
                },
                "subject": {
                    "reference": "urn:uuid:d325cb18-8a83-4d83-972f-f0204ba2988e"
                },
                "performer": [
                    {
                        "reference": "urn:uuid:3dc32b79-7e9b-415d-ad17-1b923b068633"
                    },
                    {
                        "reference": "urn:uuid:211829e5-ce55-414a-8125-eca37db8d21c"
                    }
                ],
                "comment": "NEGATIVE",
                "specimen": {
                    "reference": "urn:uuid:7a3c7653-001c-4662-939a-0f85fe15b1f1"
                }
            }
        }
    ]
}