{
    "resourceType": "Bundle",
    "id": "dd2c5f96-bf33-438e-b7e3-77b64227f7c8",
    "meta": {
        "lastUpdated": "2021-06-07T12:21:48.630+01:00",
        "profile": [ "https://fhir.nhs.uk/STU3/StructureDefinition/ITK-Message-Bundle-1" ]
    },
    "identifier": {
        "system": "https://tools.ietf.org/html/rfc4122",
        "value": "9a991e16-1f58-4831-813b-a194153c1613"
    },
    "type": "message",
    "entry": [ {
        "fullUrl": "urn:uuid:992fdc47-ae6a-4643-a793-8633adcc0fbf",
        "resource": {
            "resourceType": "MessageHeader",
            "id": "992fdc47-ae6a-4643-a793-8633adcc0fbf",
            "meta": {
                "profile": [ "https://fhir.nhs.uk/STU3/StructureDefinition/ITK-MessageHeader-2" ]
            },
            "extension": [ {
                "url": "https://fhir.nhs.uk/STU3/StructureDefinition/Extension-ITK-MessageHandling-2",
                "extension": [ {
                    "url": "BusAckRequested",
                    "valueBoolean": true
                }, {
                    "url": "InfAckRequested",
                    "valueBoolean": true
                }, {
                    "url": "RecipientType",
                    "valueCoding": {
                        "system": "https://fhir.nhs.uk/STU3/CodeSystem/ITK-RecipientType-1",
                        "code": "FA",
                        "display": "For Action"
                    }
                }, {
                    "url": "SenderReference",
                    "valueString": "None"
                }, {
                    "url": "LocalExtension",
                    "valueString": "None"
                } ]
            } ],
            "event": {
                "system": "https://fhir.nhs.uk/STU3/CodeSystem/ITK-MessageEvent-2",
                "code": "ITK012M",
                "display": "ITK National Pathology"
            },
            "receiver": {
                "reference": "urn:uuid:3cced840-9b88-4e71-9ae4-8a342daab218"
            },
            "sender": {
                "reference": "urn:uuid:3f121b48-b277-436d-9fcf-f75985e1d339"
            },
            "timestamp": "2010-03-01T17:51:00.000+00:00",
            "source": {
                "endpoint": "lab_results_mailbox"
            },
            "responsible": {
                "reference": "urn:uuid:3f121b48-b277-436d-9fcf-f75985e1d339"
            },
            "focus": [ {
                "reference": "urn:uuid:383f1422-f402-4eb0-800b-eafe46c75fdc"
            } ]
        }
    }, {
        "fullUrl": "urn:uuid:1da94407-ef56-4688-96dd-3b1688ad9321",
        "resource": {
            "resourceType": "Patient",
            "id": "1da94407-ef56-4688-96dd-3b1688ad9321",
            "meta": {
                "profile": [ "https://fhir.hl7.org.uk/STU3/StructureDefinition/CareConnect-Patient-1" ]
            },
            "identifier": [ {
                "extension": [ {
                    "url": "https://fhir.hl7.org.uk/STU3/StructureDefinition/Extension-CareConnect-NHSNumberVerificationStatus-1",
                    "valueCodeableConcept": {
                        "coding": [ {
                            "system": "https://fhir.hl7.org.uk/STU3/CodeSystem/CareConnect-NHSNumberVerificationStatus-1",
                            "code": "01",
                            "display": "Number present and verified"
                        } ]
                    }
                } ],
                "system": "https://fhir.nhs.uk/Id/nhs-number",
                "value": "9435518443"
            } ],
            "name": [ {
                "use": "official",
                "family": "TSUEI",
                "given": [ "MINGYU" ]
            } ],
            "gender": "female",
            "birthDate": "1967-05-31"
        }
    }, {
        "fullUrl": "urn:uuid:5af1ec1a-0b1b-4716-b5e4-dd109d9044a0",
        "resource": {
            "resourceType": "Practitioner",
            "id": "5af1ec1a-0b1b-4716-b5e4-dd109d9044a0",
            "meta": {
                "profile": [ "https://fhir.hl7.org.uk/STU3/StructureDefinition/CareConnect-Practitioner-1" ]
            },
            "name": [ {
                "text": "SCOTT"
            } ]
        }
    }, {
        "fullUrl": "urn:uuid:3cced840-9b88-4e71-9ae4-8a342daab218",
        "resource": {
            "resourceType": "Organization",
            "id": "3cced840-9b88-4e71-9ae4-8a342daab218",
            "meta": {
                "profile": [ "https://fhir.hl7.org.uk/STU3/StructureDefinition/CareConnect-Organization-1" ]
            },
            "name": "NORTH DOWN GP"
        }
    }, {
        "fullUrl": "urn:uuid:ccb593db-650b-459f-b115-5cf4c23410da",
        "resource": {
            "resourceType": "Practitioner",
            "id": "ccb593db-650b-459f-b115-5cf4c23410da",
            "meta": {
                "profile": [ "https://fhir.hl7.org.uk/STU3/StructureDefinition/CareConnect-Practitioner-1" ]
            },
            "identifier": [ {
                "value": "C1357930"
            } ],
            "name": [ {
                "text": "DR C CURLEY"
            } ]
        }
    }, {
        "fullUrl": "urn:uuid:3f121b48-b277-436d-9fcf-f75985e1d339",
        "resource": {
            "resourceType": "Organization",
            "id": "3f121b48-b277-436d-9fcf-f75985e1d339",
            "meta": {
                "profile": [ "https://fhir.hl7.org.uk/STU3/StructureDefinition/CareConnect-Organization-1" ]
            },
            "type": [ {
                "coding": [ {
                    "code": "dept",
                    "display": "Microbiology"
                } ]
            } ],
            "name": "ST JAMES'S UNIVERSITY HOSPITAL"
        }
    }, {
        "fullUrl": "urn:uuid:1c83a410-dcf3-4a3e-a8e0-0fc798246980",
        "resource": {
            "resourceType": "ProcedureRequest",
            "id": "1c83a410-dcf3-4a3e-a8e0-0fc798246980",
            "meta": {
                "profile": [ "https://fhir.hl7.org.uk/STU3/StructureDefinition/CareConnect-ProcedureRequest-1" ]
            },
            "status": "active",
            "intent": "order",
            "code": {
                "coding": [ {
                    "system": "http://snomed.info/sct",
                    "code": "15220000",
                    "display": "Laboratory test (procedure)"
                } ]
            },
            "subject": {
                "reference": "urn:uuid:1da94407-ef56-4688-96dd-3b1688ad9321"
            },
            "requester": {
                "agent": {
                    "reference": "urn:uuid:5af1ec1a-0b1b-4716-b5e4-dd109d9044a0"
                },
                "onBehalfOf": {
                    "reference": "urn:uuid:3cced840-9b88-4e71-9ae4-8a342daab218"
                }
            },
            "performer": {
                "reference": "urn:uuid:ccb593db-650b-459f-b115-5cf4c23410da"
            }
        }
    }, {
        "fullUrl": "urn:uuid:383f1422-f402-4eb0-800b-eafe46c75fdc",
        "resource": {
            "resourceType": "DiagnosticReport",
            "id": "383f1422-f402-4eb0-800b-eafe46c75fdc",
            "meta": {
                "profile": [ "https://fhir.hl7.org.uk/STU3/StructureDefinition/CareConnect-DiagnosticReport-1" ]
            },
            "identifier": [ {
                "system": "https://tools.ietf.org/html/rfc4122",
                "value": "15/CH000063K/200010191704"
            } ],
            "basedOn": [ {
                "reference": "urn:uuid:1c83a410-dcf3-4a3e-a8e0-0fc798246980"
            } ],
            "status": "unknown",
            "code": {
                "coding": [ {
                    "system": "http://snomed.info/sct",
                    "code": "721981007",
                    "display": "Diagnostic studies report"
                } ]
            },
            "subject": {
                "reference": "urn:uuid:1da94407-ef56-4688-96dd-3b1688ad9321"
            },
            "issued": "2010-02-25T15:41:00.000+00:00",
            "performer": [ {
                "actor": {
                    "reference": "urn:uuid:3f121b48-b277-436d-9fcf-f75985e1d339"
                }
            }, {
                "actor": {
                    "reference": "urn:uuid:ccb593db-650b-459f-b115-5cf4c23410da"
                }
            } ]
        }
    } ]
}