{
    "resourceType": "Bundle",
    "id": "157cefd0-d1ba-4638-9511-ecb695076a33",
    "meta": {
        "lastUpdated": "2021-02-24T12:24:35.734+00:00",
        "profile": [
            "https://fhir.nhs.uk/STU3/StructureDefinition/ITK-Message-Bundle-1"
        ]
    },
    "identifier": {
        "system": "https://tools.ietf.org/html/rfc4122",
        "value": "4ffc3cd5-c6b7-411c-aa2a-a50944ceec45"
    },
    "type": "message",
    "entry": [
        {
            "fullUrl": "urn:uuid:eea77c68-0d47-412c-a7bc-321583a2c75f",
            "resource": {
                "resourceType": "Patient",
                "id": "eea77c68-0d47-412c-a7bc-321583a2c75f",
                "meta": {
                    "profile": [
                        "https://fhir.hl7.org.uk/STU3/StructureDefinition/CareConnect-Patient-1"
                    ]
                },
                "identifier": [
                    {
                        "system": "https://fhir.nhs.uk/Id/nhs-number",
                        "value": "9435518443"
                    }
                ],
                "name": [
                    {
                        "family": "TSUEI",
                        "given": [
                            "MINGYU"
                        ]
                    }
                ],
                "gender": "female",
                "birthDate": "1967-05-31"
            }
        },
        {
            "fullUrl": "urn:uuid:1896e090-962b-4c66-aa41-8154e4623b49",
            "resource": {
                "resourceType": "Practitioner",
                "id": "1896e090-962b-4c66-aa41-8154e4623b49",
                "meta": {
                    "profile": [
                        "https://fhir.hl7.org.uk/STU3/StructureDefinition/CareConnect-Practitioner-1"
                    ]
                },
                "name": [
                    {
                        "text": "SCOTT"
                    }
                ]
            }
        },
        {
            "fullUrl": "urn:uuid:40744751-c663-4f52-a15b-365a22b6b6a4",
            "resource": {
                "resourceType": "Organization",
                "id": "40744751-c663-4f52-a15b-365a22b6b6a4",
                "meta": {
                    "profile": [
                        "https://fhir.hl7.org.uk/STU3/StructureDefinition/CareConnect-Organization-1"
                    ]
                },
                "name": "NORTH DOWN GP"
            }
        },
        {
            "fullUrl": "urn:uuid:c8363588-7bf2-427f-8be1-da637b6ea464",
            "resource": {
                "resourceType": "Practitioner",
                "id": "c8363588-7bf2-427f-8be1-da637b6ea464",
                "meta": {
                    "profile": [
                        "https://fhir.hl7.org.uk/STU3/StructureDefinition/CareConnect-Practitioner-1"
                    ]
                },
                "identifier": [
                    {
                        "system": "https://fhir.nhs.uk/Id/sds-user-id",
                        "value": "C1357930"
                    }
                ],
                "name": [
                    {
                        "text": "DR C CURLEY"
                    }
                ]
            }
        },
        {
            "fullUrl": "urn:uuid:4fb0cd2b-dfdc-49c6-beda-44d43ab4cbaa",
            "resource": {
                "resourceType": "Organization",
                "id": "4fb0cd2b-dfdc-49c6-beda-44d43ab4cbaa",
                "meta": {
                    "profile": [
                        "https://fhir.hl7.org.uk/STU3/StructureDefinition/CareConnect-Organization-1"
                    ]
                },
                "type": [
                    {
                        "coding": [
                            {
                                "code": "dept",
                                "display": "Microbiology"
                            }
                        ]
                    }
                ],
                "name": "ST JAMES'S UNIVERSITY HOSPITAL"
            }
        },
        {
            "fullUrl": "urn:uuid:1c2ffccb-186a-4193-a12e-f1b2c0bb6cee",
            "resource": {
                "resourceType": "DiagnosticReport",
                "id": "1c2ffccb-186a-4193-a12e-f1b2c0bb6cee",
                "meta": {
                    "profile": [
                        "https://fhir.hl7.org.uk/STU3/StructureDefinition/CareConnect-DiagnosticReport-1"
                    ]
                },
                "identifier": [
                    {
                        "value": "15/CH000063K/200010191704"
                    }
                ],
                "status": "unknown",
                "code": {
                    "coding": [
                        {
                            "system": "http://snomed.info/sct",
                            "code": "721981007",
                            "display": "Diagnostic studies report"
                        }
                    ]
                },
                "subject": {
                    "reference": "urn:uuid:eea77c68-0d47-412c-a7bc-321583a2c75f"
                },
                "issued": "2010-02-25T15:41:00.000+00:00",
                "performer": [
                    {
                        "actor": {
                            "reference": "urn:uuid:c8363588-7bf2-427f-8be1-da637b6ea464"
                        }
                    },
                    {
                        "actor": {
                            "reference": "urn:uuid:4fb0cd2b-dfdc-49c6-beda-44d43ab4cbaa"
                        }
                    }
                ]
            }
        }
    ]
}
