{
    "resourceType": "Bundle",
    "id": "800ff80a-1bac-4648-840c-1a7f530ac017",
    "meta": {
        "lastUpdated": "2021-06-07T10:18:28.432+01:00",
        "profile": [
            "https://fhir.nhs.uk/STU3/StructureDefinition/ITK-Message-Bundle-1"
        ]
    },
    "identifier": {
        "system": "https://tools.ietf.org/html/rfc4122",
        "value": "f5241dd7-4d3d-42d9-b134-33266b195ea6"
    },
    "type": "message",
    "entry": [
        {
            "fullUrl": "urn:uuid:f8bec008-3267-456b-9e6a-43af8b0ed8e7",
            "resource": {
                "resourceType": "MessageHeader",
                "id": "f8bec008-3267-456b-9e6a-43af8b0ed8e7",
                "meta": {
                    "profile": [
                        "https://fhir.nhs.uk/STU3/StructureDefinition/ITK-MessageHeader-2"
                    ]
                },
                "extension": [
                    {
                        "url": "https://fhir.nhs.uk/STU3/StructureDefinition/Extension-ITK-MessageHandling-2",
                        "extension": [
                            {
                                "url": "BusAckRequested",
                                "valueBoolean": true
                            },
                            {
                                "url": "InfAckRequested",
                                "valueBoolean": true
                            },
                            {
                                "url": "RecipientType",
                                "valueCoding": {
                                    "system": "https://fhir.nhs.uk/STU3/CodeSystem/ITK-RecipientType-1",
                                    "code": "FA",
                                    "display": "For Action"
                                }
                            },
                            {
                                "url": "SenderReference",
                                "valueString": "None"
                            },
                            {
                                "url": "LocalExtension",
                                "valueString": "None"
                            }
                        ]
                    }
                ],
                "event": {
                    "system": "https://fhir.nhs.uk/STU3/CodeSystem/ITK-MessageEvent-2",
                    "code": "ITK012M",
                    "display": "ITK National Pathology"
                },
                "receiver": {
                    "reference": "urn:uuid:7b9ba273-0535-47cd-bb52-c599c0b4f7b6"
                },
                "sender": {
                    "reference": "urn:uuid:ebbe1a93-213e-4c56-a060-f9861ed70c3c"
                },
                "timestamp": "2010-03-01T17:51:00.000+00:00",
                "source": {
                    "endpoint": "lab_results_mailbox"
                },
                "responsible": {
                    "reference": "urn:uuid:ebbe1a93-213e-4c56-a060-f9861ed70c3c"
                },
                "focus": [
                    {
                        "reference": "urn:uuid:d597402e-3cb2-4522-b61e-b0b7d67b3a58"
                    }
                ]
            }
        },
        {
            "fullUrl": "urn:uuid:6e9ee8ab-29b3-44a9-972f-762fbe73f131",
            "resource": {
                "resourceType": "Patient",
                "id": "6e9ee8ab-29b3-44a9-972f-762fbe73f131",
                "meta": {
                    "profile": [
                        "https://fhir.hl7.org.uk/STU3/StructureDefinition/CareConnect-Patient-1"
                    ]
                },
                "identifier": [
                    {
                        "extension": [
                            {
                                "url": "https://fhir.hl7.org.uk/STU3/StructureDefinition/Extension-CareConnect-NHSNumberVerificationStatus-1",
                                "valueCodeableConcept": {
                                    "coding": [
                                        {
                                            "system": "https://fhir.hl7.org.uk/STU3/CodeSystem/CareConnect-NHSNumberVerificationStatus-1",
                                            "code": "01",
                                            "display": "Number present and verified"
                                        }
                                    ]
                                }
                            }
                        ],
                        "system": "https://fhir.nhs.uk/Id/nhs-number",
                        "value": "9435492908"
                    }
                ],
                "name": [
                    {
                        "use": "official",
                        "family": "AZIZ",
                        "given": [
                            "NISMA"
                        ]
                    }
                ],
                "gender": "female",
                "birthDate": "1945-07-30",
                "address": [
                    {
                        "line": [
                            "FLAT1",
                            "59 SANDTOFT ROAD",
                            "BELTON",
                            "DONCASTER"
                        ],
                        "postalCode": "DN9 1PJ"
                    }
                ]
            }
        },
        {
            "fullUrl": "urn:uuid:c2758cef-5072-41f4-9cb4-0956085f62f9",
            "resource": {
                "resourceType": "Practitioner",
                "id": "c2758cef-5072-41f4-9cb4-0956085f62f9",
                "meta": {
                    "profile": [
                        "https://fhir.hl7.org.uk/STU3/StructureDefinition/CareConnect-Practitioner-1"
                    ]
                },
                "identifier": [
                    {
                        "system": "https://fhir.nhs.uk/Id/sds-user-id",
                        "value": "G3380314"
                    }
                ],
                "name": [
                    {
                        "text": "SCOTT"
                    }
                ]
            }
        },
        {
            "fullUrl": "urn:uuid:7b9ba273-0535-47cd-bb52-c599c0b4f7b6",
            "resource": {
                "resourceType": "Organization",
                "id": "7b9ba273-0535-47cd-bb52-c599c0b4f7b6",
                "meta": {
                    "profile": [
                        "https://fhir.hl7.org.uk/STU3/StructureDefinition/CareConnect-Organization-1"
                    ]
                },
                "name": "NORTH DOWN GP"
            }
        },
        {
            "fullUrl": "urn:uuid:f3dd5393-7a83-4a3b-b073-b3eb110bc08a",
            "resource": {
                "resourceType": "Practitioner",
                "id": "f3dd5393-7a83-4a3b-b073-b3eb110bc08a",
                "meta": {
                    "profile": [
                        "https://fhir.hl7.org.uk/STU3/StructureDefinition/CareConnect-Practitioner-1"
                    ]
                }
            }
        },
        {
            "fullUrl": "urn:uuid:ebbe1a93-213e-4c56-a060-f9861ed70c3c",
            "resource": {
                "resourceType": "Organization",
                "id": "ebbe1a93-213e-4c56-a060-f9861ed70c3c",
                "meta": {
                    "profile": [
                        "https://fhir.hl7.org.uk/STU3/StructureDefinition/CareConnect-Organization-1"
                    ]
                },
                "type": [
                    {
                        "coding": [
                            {
                                "code": "dept",
                                "display": "Microbiology"
                            }
                        ]
                    }
                ],
                "name": "ST JAMES'S UNIVERSITY HOSPITAL"
            }
        },
        {
            "fullUrl": "urn:uuid:607d9845-7512-4a10-8866-224ec0f6884e",
            "resource": {
                "resourceType": "ProcedureRequest",
                "id": "607d9845-7512-4a10-8866-224ec0f6884e",
                "meta": {
                    "profile": [
                        "https://fhir.hl7.org.uk/STU3/StructureDefinition/CareConnect-ProcedureRequest-1"
                    ]
                },
                "status": "unknown",
                "intent": "order",
                "code": {
                    "text": "unknown"
                },
                "subject": {
                    "reference": "urn:uuid:6e9ee8ab-29b3-44a9-972f-762fbe73f131"
                },
                "requester": {
                    "agent": {
                        "reference": "urn:uuid:c2758cef-5072-41f4-9cb4-0956085f62f9"
                    },
                    "onBehalfOf": {
                        "reference": "urn:uuid:7b9ba273-0535-47cd-bb52-c599c0b4f7b6"
                    }
                },
                "performer": {
                    "reference": "urn:uuid:f3dd5393-7a83-4a3b-b073-b3eb110bc08a"
                },
                "note": [
                    {
                        "text": "TIRED ALL THE TIME, LOW Hb"
                    },
                    {
                        "text": "COELIAC"
                    }
                ]
            }
        },
        {
            "fullUrl": "urn:uuid:d597402e-3cb2-4522-b61e-b0b7d67b3a58",
            "resource": {
                "resourceType": "DiagnosticReport",
                "id": "d597402e-3cb2-4522-b61e-b0b7d67b3a58",
                "meta": {
                    "profile": [
                        "https://fhir.hl7.org.uk/STU3/StructureDefinition/CareConnect-DiagnosticReport-1"
                    ]
                },
                "identifier": [
                    {
                        "system": "https://tools.ietf.org/html/rfc4122",
                        "value": "15/CH000037K/200010191704"
                    }
                ],
                "basedOn": [
                    {
                        "reference": "urn:uuid:607d9845-7512-4a10-8866-224ec0f6884e"
                    }
                ],
                "status": "appended",
                "code": {
                    "coding": [
                        {
                            "system": "http://snomed.info/sct",
                            "code": "721981007",
                            "display": "Diagnostic studies report"
                        }
                    ]
                },
                "subject": {
                    "reference": "urn:uuid:6e9ee8ab-29b3-44a9-972f-762fbe73f131"
                },
                "issued": "2010-02-25T15:41:00.000+00:00",
                "performer": [
                    {
                        "actor": {
                            "reference": "urn:uuid:ebbe1a93-213e-4c56-a060-f9861ed70c3c"
                        }
                    },
                    {
                        "actor": {
                            "reference": "urn:uuid:f3dd5393-7a83-4a3b-b073-b3eb110bc08a"
                        }
                    }
                ],
                "specimen": [
                    {
                        "reference": "urn:uuid:5778a5ee-dedb-40c4-857b-174035e7baee"
                    }
                ],
                "result": [
                    {
                        "reference": "urn:uuid:4547ee99-c60f-48c1-909d-272bda26b7a3"
                    }
                ]
            }
        },
        {
            "fullUrl": "urn:uuid:5778a5ee-dedb-40c4-857b-174035e7baee",
            "resource": {
                "resourceType": "Specimen",
                "id": "5778a5ee-dedb-40c4-857b-174035e7baee",
                "meta": {
                    "profile": [
                        "https://fhir.hl7.org.uk/STU3/StructureDefinition/CareConnect-Specimen-1"
                    ]
                },
                "accessionIdentifier": {
                    "system": "http://lab.acme.org/specimens/2011",
                    "value": "CH000037KA"
                },
                "type": {
                    "coding": [
                        {
                            "system": "http://snomed.info/sct",
                            "display": "VENOUS BLOOD"
                        }
                    ]
                },
                "subject": {
                    "reference": "urn:uuid:6e9ee8ab-29b3-44a9-972f-762fbe73f131"
                },
                "receivedTime": "2010-02-24T15:41:00+00:00",
                "collection": {
                    "collectedDateTime": "2010-02-23T15:41:00+00:00"
                }
            }
        },
        {
            "fullUrl": "urn:uuid:4547ee99-c60f-48c1-909d-272bda26b7a3",
            "resource": {
                "resourceType": "Observation",
                "id": "4547ee99-c60f-48c1-909d-272bda26b7a3",
                "meta": {
                    "profile": [
                        "https://fhir.hl7.org.uk/STU3/StructureDefinition/CareConnect-Observation-1"
                    ]
                },
                "status": "unknown",
                "code": {
                    "coding": [
                        {
                            "system": "http://read.info/readv2",
                            "code": "42R4.",
                            "display": "Serum ferritin"
                        }
                    ]
                },
                "subject": {
                    "reference": "urn:uuid:6e9ee8ab-29b3-44a9-972f-762fbe73f131"
                },
                "performer": [
                    {
                        "reference": "urn:uuid:ebbe1a93-213e-4c56-a060-f9861ed70c3c"
                    },
                    {
                        "reference": "urn:uuid:f3dd5393-7a83-4a3b-b073-b3eb110bc08a"
                    }
                ],
                "valueQuantity": {
                    "value": 11,
                    "unit": "ng/mL"
                },
                "specimen": {
                    "reference": "urn:uuid:5778a5ee-dedb-40c4-857b-174035e7baee"
                },
                "referenceRange": [
                    {
                        "low": {
                            "value": 10
                        },
                        "high": {
                            "value": 200
                        }
                    }
                ]
            }
        }
    ]
}