{
    "resourceType": "Bundle",
    "id": "e8140fe1-d34b-4a17-8430-bb6843bd5b8f",
    "meta": {
        "lastUpdated": "2021-06-08T10:47:53.038+01:00",
        "profile": [
            "https://fhir.nhs.uk/STU3/StructureDefinition/ITK-Message-Bundle-1"
        ]
    },
    "identifier": {
        "system": "https://tools.ietf.org/html/rfc4122",
        "value": "cc77ba54-c832-4bb4-a19b-def9acefa757"
    },
    "type": "message",
    "entry": [
        {
            "fullUrl": "urn:uuid:4eeda01d-c21f-4ec3-b7e8-9d00f4696781",
            "resource": {
                "resourceType": "MessageHeader",
                "id": "4eeda01d-c21f-4ec3-b7e8-9d00f4696781",
                "meta": {
                    "profile": [
                        "https://fhir.nhs.uk/STU3/StructureDefinition/ITK-MessageHeader-2"
                    ]
                },
                "extension": [
                    {
                        "url": "https://fhir.nhs.uk/STU3/StructureDefinition/Extension-ITK-MessageHandling-2",
                        "extension": [
                            {
                                "url": "BusAckRequested",
                                "valueBoolean": true
                            },
                            {
                                "url": "InfAckRequested",
                                "valueBoolean": true
                            },
                            {
                                "url": "RecipientType",
                                "valueCoding": {
                                    "system": "https://fhir.nhs.uk/STU3/CodeSystem/ITK-RecipientType-1",
                                    "code": "FA",
                                    "display": "For Action"
                                }
                            },
                            {
                                "url": "SenderReference",
                                "valueString": "None"
                            },
                            {
                                "url": "LocalExtension",
                                "valueString": "None"
                            }
                        ]
                    }
                ],
                "event": {
                    "system": "https://fhir.nhs.uk/STU3/CodeSystem/ITK-MessageEvent-2",
                    "code": "ITK012M",
                    "display": "ITK National Pathology"
                },
                "receiver": {
                    "reference": "urn:uuid:aee1ef97-e768-411e-8968-2697a98dab38"
                },
                "sender": {
                    "reference": "urn:uuid:a64561d8-e0d9-4a65-bf47-517515ed8f69"
                },
                "timestamp": "2010-03-01T17:51:00.000+00:00",
                "source": {
                    "endpoint": "lab_results_mailbox"
                },
                "responsible": {
                    "reference": "urn:uuid:a64561d8-e0d9-4a65-bf47-517515ed8f69"
                },
                "focus": [
                    {
                        "reference": "urn:uuid:71ed363f-9703-47ed-bb74-493ffe552326"
                    }
                ]
            }
        },
        {
            "fullUrl": "urn:uuid:f7cdad4a-f8b4-48bd-8bb7-b55f07d2baf6",
            "resource": {
                "resourceType": "Patient",
                "id": "f7cdad4a-f8b4-48bd-8bb7-b55f07d2baf6",
                "meta": {
                    "profile": [
                        "https://fhir.hl7.org.uk/STU3/StructureDefinition/CareConnect-Patient-1"
                    ]
                },
                "identifier": [
                    {
                        "extension": [
                            {
                                "url": "https://fhir.hl7.org.uk/STU3/StructureDefinition/Extension-CareConnect-NHSNumberVerificationStatus-1",
                                "valueCodeableConcept": {
                                    "coding": [
                                        {
                                            "system": "https://fhir.hl7.org.uk/STU3/CodeSystem/CareConnect-NHSNumberVerificationStatus-1",
                                            "code": "01",
                                            "display": "Number present and verified"
                                        }
                                    ]
                                }
                            }
                        ],
                        "system": "https://fhir.nhs.uk/Id/nhs-number",
                        "value": "9435518443"
                    }
                ],
                "name": [
                    {
                        "use": "official",
                        "family": "TSUEI",
                        "given": [
                            "MINGYU"
                        ]
                    }
                ],
                "gender": "female",
                "birthDate": "1967-05-31"
            }
        },
        {
            "fullUrl": "urn:uuid:375f9a8c-039f-473c-8c5b-7e606a0b2884",
            "resource": {
                "resourceType": "Practitioner",
                "id": "375f9a8c-039f-473c-8c5b-7e606a0b2884",
                "meta": {
                    "profile": [
                        "https://fhir.hl7.org.uk/STU3/StructureDefinition/CareConnect-Practitioner-1"
                    ]
                },
                "name": [
                    {
                        "text": "SCOTT"
                    }
                ]
            }
        },
        {
            "fullUrl": "urn:uuid:aee1ef97-e768-411e-8968-2697a98dab38",
            "resource": {
                "resourceType": "Organization",
                "id": "aee1ef97-e768-411e-8968-2697a98dab38",
                "meta": {
                    "profile": [
                        "https://fhir.hl7.org.uk/STU3/StructureDefinition/CareConnect-Organization-1"
                    ]
                },
                "name": "NORTH DOWN GP"
            }
        },
        {
            "fullUrl": "urn:uuid:73a5922a-2177-45d5-a236-67f309c20dcd",
            "resource": {
                "resourceType": "Practitioner",
                "id": "73a5922a-2177-45d5-a236-67f309c20dcd",
                "meta": {
                    "profile": [
                        "https://fhir.hl7.org.uk/STU3/StructureDefinition/CareConnect-Practitioner-1"
                    ]
                },
                "identifier": [
                    {
                        "value": "C1357930"
                    }
                ],
                "name": [
                    {
                        "text": "DR C CURLEY"
                    }
                ]
            }
        },
        {
            "fullUrl": "urn:uuid:a64561d8-e0d9-4a65-bf47-517515ed8f69",
            "resource": {
                "resourceType": "Organization",
                "id": "a64561d8-e0d9-4a65-bf47-517515ed8f69",
                "meta": {
                    "profile": [
                        "https://fhir.hl7.org.uk/STU3/StructureDefinition/CareConnect-Organization-1"
                    ]
                },
                "type": [
                    {
                        "coding": [
                            {
                                "code": "dept",
                                "display": "Microbiology"
                            }
                        ]
                    }
                ],
                "name": "ST JAMES'S UNIVERSITY HOSPITAL"
            }
        },
        {
            "fullUrl": "urn:uuid:f4a0b3f4-df48-42a2-b891-c3670d71c65e",
            "resource": {
                "resourceType": "ProcedureRequest",
                "id": "f4a0b3f4-df48-42a2-b891-c3670d71c65e",
                "meta": {
                    "profile": [
                        "https://fhir.hl7.org.uk/STU3/StructureDefinition/CareConnect-ProcedureRequest-1"
                    ]
                },
                "status": "active",
                "intent": "order",
                "code": {
                    "coding": [
                        {
                            "system": "http://snomed.info/sct",
                            "code": "15220000",
                            "display": "Laboratory test (procedure)"
                        }
                    ]
                },
                "subject": {
                    "reference": "urn:uuid:f7cdad4a-f8b4-48bd-8bb7-b55f07d2baf6"
                },
                "requester": {
                    "agent": {
                        "reference": "urn:uuid:375f9a8c-039f-473c-8c5b-7e606a0b2884"
                    },
                    "onBehalfOf": {
                        "reference": "urn:uuid:aee1ef97-e768-411e-8968-2697a98dab38"
                    }
                },
                "performer": {
                    "reference": "urn:uuid:73a5922a-2177-45d5-a236-67f309c20dcd"
                }
            }
        },
        {
            "fullUrl": "urn:uuid:71ed363f-9703-47ed-bb74-493ffe552326",
            "resource": {
                "resourceType": "DiagnosticReport",
                "id": "71ed363f-9703-47ed-bb74-493ffe552326",
                "meta": {
                    "profile": [
                        "https://fhir.hl7.org.uk/STU3/StructureDefinition/CareConnect-DiagnosticReport-1"
                    ]
                },
                "identifier": [
                    {
                        "system": "https://tools.ietf.org/html/rfc4122",
                        "value": "15/CH000063K/200010191704"
                    }
                ],
                "basedOn": [
                    {
                        "reference": "urn:uuid:f4a0b3f4-df48-42a2-b891-c3670d71c65e"
                    }
                ],
                "status": "unknown",
                "code": {
                    "coding": [
                        {
                            "system": "http://snomed.info/sct",
                            "code": "721981007",
                            "display": "Diagnostic studies report"
                        }
                    ]
                },
                "subject": {
                    "reference": "urn:uuid:f7cdad4a-f8b4-48bd-8bb7-b55f07d2baf6"
                },
                "issued": "2010-02-25T15:41:00.000+00:00",
                "performer": [
                    {
                        "actor": {
                            "reference": "urn:uuid:a64561d8-e0d9-4a65-bf47-517515ed8f69"
                        }
                    },
                    {
                        "actor": {
                            "reference": "urn:uuid:73a5922a-2177-45d5-a236-67f309c20dcd"
                        }
                    }
                ]
            }
        }
    ]
}