{
    "resourceType": "Bundle",
<<<<<<< HEAD
    "id": "228a15b3-02af-40ab-8b03-070630787c8f",
    "meta": {
        "lastUpdated": "2021-04-27T13:07:24.709+01:00",
        "profile": [ "https://fhir.nhs.uk/STU3/StructureDefinition/ITK-Message-Bundle-1" ]
    },
    "identifier": {
        "system": "https://tools.ietf.org/html/rfc4122",
        "value": "22fb6360-53df-4ee1-9d99-d8fd3ac90113"
    },
    "type": "message",
    "entry": [ {
        "fullUrl": "urn:uuid:1fdcd0c5-70ad-48ed-9220-616351ed900c",
        "resource": {
            "resourceType": "MessageHeader",
            "id": "1fdcd0c5-70ad-48ed-9220-616351ed900c",
            "meta": {
                "profile": [ "https://fhir.nhs.uk/STU3/StructureDefinition/ITK-MessageHeader-2" ]
            },
            "extension": [ {
                "url": "https://fhir.nhs.uk/STU3/StructureDefinition/Extension-ITK-MessageHandling-2",
                "extension": [ {
                    "url": "BusAckRequested",
                    "valueBoolean": true
                }, {
                    "url": "InfAckRequested",
                    "valueBoolean": true
                }, {
                    "url": "RecipientType",
                    "valueCoding": {
                        "system": "https://fhir.nhs.uk/STU3/CodeSystem/ITK-RecipientType-1",
                        "code": "FA",
                        "display": "For Action"
=======
    "id": "47d76606-c161-4403-96e7-add7c38291f6",
    "meta": {
        "lastUpdated": "2021-04-28T14:47:18.281+01:00",
        "profile": [
            "https://fhir.nhs.uk/STU3/StructureDefinition/ITK-Message-Bundle-1"
        ]
    },
    "identifier": {
        "system": "https://tools.ietf.org/html/rfc4122",
        "value": "ff93ec65-99e6-4dff-9074-577501097407"
    },
    "type": "message",
    "entry": [
        {
            "fullUrl": "urn:uuid:be8cda42-fb1a-4c41-9153-9b3c4076762a",
            "resource": {
                "resourceType": "MessageHeader",
                "id": "be8cda42-fb1a-4c41-9153-9b3c4076762a",
                "meta": {
                    "profile": [
                        "https://fhir.nhs.uk/STU3/StructureDefinition/ITK-MessageHeader-2"
                    ]
                },
                "extension": [
                    {
                        "url": "https://fhir.nhs.uk/STU3/StructureDefinition/Extension-ITK-MessageHandling-2",
                        "extension": [
                            {
                                "url": "BusAckRequested",
                                "valueBoolean": true
                            },
                            {
                                "url": "InfAckRequested",
                                "valueBoolean": true
                            },
                            {
                                "url": "RecipientType",
                                "valueCoding": {
                                    "system": "https://fhir.nhs.uk/STU3/CodeSystem/ITK-RecipientType-1",
                                    "code": "FA",
                                    "display": "For Action"
                                }
                            },
                            {
                                "url": "SenderReference",
                                "valueString": "None"
                            },
                            {
                                "url": "LocalExtension",
                                "valueString": "None"
                            }
                        ]
                    }
                ],
                "event": {
                    "system": "https://fhir.nhs.uk/STU3/CodeSystem/ITK-MessageEvent-2",
                    "code": "ITK012M",
                    "display": "ITK National Pathology"
                },
                "receiver": {
                    "reference": "urn:uuid:b38639d5-6827-43e1-a1f7-fbbeaab0f378"
                },
                "sender": {
                    "reference": "urn:uuid:1ec4a8b5-382f-4587-9f5b-ec5413eca12b"
                },
                "timestamp": "2010-03-01T17:51:00.000+00:00",
                "source": {
                    "endpoint": "lab_results_mailbox"
                },
                "responsible": {
                    "reference": "urn:uuid:1ec4a8b5-382f-4587-9f5b-ec5413eca12b"
                },
                "focus": [
                    {
                        "reference": "urn:uuid:959037f3-7956-4b75-9cb6-89983bf9eb6c"
                    }
                ]
            }
        },
        {
            "fullUrl": "urn:uuid:64b5f8ad-ccfb-4d75-a7e6-0903e68ec1ae",
            "resource": {
                "resourceType": "Patient",
                "id": "64b5f8ad-ccfb-4d75-a7e6-0903e68ec1ae",
                "meta": {
                    "profile": [
                        "https://fhir.hl7.org.uk/STU3/StructureDefinition/CareConnect-Patient-1"
                    ]
                },
                "identifier": [
                    {
                        "extension": [
                            {
                                "url": "https://fhir.hl7.org.uk/STU3/StructureDefinition/Extension-CareConnect-NHSNumberVerificationStatus-1",
                                "valueCodeableConcept": {
                                    "coding": [
                                        {
                                            "system": "https://fhir.hl7.org.uk/STU3/CodeSystem/CareConnect-NHSNumberVerificationStatus-1",
                                            "code": "01",
                                            "display": "Number present and verified"
                                        }
                                    ]
                                }
                            }
                        ],
                        "system": "https://fhir.nhs.uk/Id/nhs-number",
                        "value": "9435492908"
                    }
                ],
                "name": [
                    {
                        "use": "official",
                        "family": "AZIZ",
                        "given": [
                            "NISMA"
                        ]
                    }
                ],
                "gender": "female",
                "birthDate": "1945-07-30",
                "address": [
                    {
                        "line": [
                            "FLAT1",
                            "59 SANDTOFT ROAD",
                            "BELTON",
                            "DONCASTER"
                        ],
                        "postalCode": "DN9 1PJ"
                    }
                ]
            }
        },
        {
            "fullUrl": "urn:uuid:f62cf5f8-fa46-4fa5-8924-914e43259cf8",
            "resource": {
                "resourceType": "Practitioner",
                "id": "f62cf5f8-fa46-4fa5-8924-914e43259cf8",
                "meta": {
                    "profile": [
                        "https://fhir.hl7.org.uk/STU3/StructureDefinition/CareConnect-Practitioner-1"
                    ]
                },
                "identifier": [
                    {
                        "system": "https://fhir.nhs.uk/Id/sds-user-id",
                        "value": "G3380314"
>>>>>>> main
                    }
                }, {
                    "url": "SenderReference",
                    "valueString": "None"
                }, {
                    "url": "LocalExtension",
                    "valueString": "None"
                } ]
            } ],
            "event": {
                "system": "https://fhir.nhs.uk/STU3/CodeSystem/ITK-MessageEvent-2",
                "code": "ITK012M",
                "display": "ITK National Pathology"
            },
            "receiver": {
                "reference": "urn:uuid:d4bed954-754c-4069-ab84-87119fe67679"
            },
            "sender": {
                "reference": "urn:uuid:d2a552f4-e2ec-4c88-b4f8-daf7dd201402"
            },
            "timestamp": "2010-03-01T17:51:00.000+00:00",
            "source": {
                "endpoint": "lab_results_mailbox"
            },
            "responsible": {
                "reference": "urn:uuid:d2a552f4-e2ec-4c88-b4f8-daf7dd201402"
            },
            "focus": [ {
                "reference": "urn:uuid:ad2554fe-f6a9-4516-9be7-d7caa7eb7f5d"
            } ]
        }
    }, {
        "fullUrl": "urn:uuid:9dfd8952-88da-4cad-8a6c-edabc9cb4f78",
        "resource": {
            "resourceType": "Patient",
            "id": "9dfd8952-88da-4cad-8a6c-edabc9cb4f78",
            "meta": {
                "profile": [ "https://fhir.hl7.org.uk/STU3/StructureDefinition/CareConnect-Patient-1" ]
            },
            "identifier": [ {
                "extension": [ {
                    "url": "https://fhir.hl7.org.uk/STU3/StructureDefinition/Extension-CareConnect-NHSNumberVerificationStatus-1",
                    "valueCodeableConcept": {
                        "coding": [ {
                            "system": "https://fhir.hl7.org.uk/STU3/CodeSystem/CareConnect-NHSNumberVerificationStatus-1",
                            "code": "01",
                            "display": "Number present and verified"
                        } ]
                    }
                } ],
                "system": "https://fhir.nhs.uk/Id/nhs-number",
                "value": "9435492908"
            } ],
            "name": [ {
                "use": "official",
                "family": "AZIZ",
                "given": [ "NISMA" ]
            } ],
            "gender": "female",
            "birthDate": "1945-07-30",
            "address": [ {
                "line": [ "FLAT1", "59 SANDTOFT ROAD", "BELTON", "DONCASTER" ],
                "postalCode": "DN9 1PJ"
            } ]
        }
    }, {
        "fullUrl": "urn:uuid:80973674-d365-4eb4-805f-6e42c19b51e7",
        "resource": {
            "resourceType": "Practitioner",
            "id": "80973674-d365-4eb4-805f-6e42c19b51e7",
            "meta": {
                "profile": [ "https://fhir.hl7.org.uk/STU3/StructureDefinition/CareConnect-Practitioner-1" ]
            },
            "identifier": [ {
                "system": "https://fhir.nhs.uk/Id/sds-user-id",
                "value": "G3380314"
            } ],
            "name": [ {
                "text": "SCOTT"
            } ]
        }
    }, {
        "fullUrl": "urn:uuid:d4bed954-754c-4069-ab84-87119fe67679",
        "resource": {
            "resourceType": "Organization",
            "id": "d4bed954-754c-4069-ab84-87119fe67679",
            "meta": {
                "profile": [ "https://fhir.hl7.org.uk/STU3/StructureDefinition/CareConnect-Organization-1" ]
            },
            "name": "NORTH DOWN GP"
        }
    }, {
        "fullUrl": "urn:uuid:59d6e849-bdb8-4160-905c-4e6fce2676d0",
        "resource": {
            "resourceType": "Practitioner",
            "id": "59d6e849-bdb8-4160-905c-4e6fce2676d0",
            "meta": {
                "profile": [ "https://fhir.hl7.org.uk/STU3/StructureDefinition/CareConnect-Practitioner-1" ]
            }
<<<<<<< HEAD
        }
    }, {
        "fullUrl": "urn:uuid:d2a552f4-e2ec-4c88-b4f8-daf7dd201402",
        "resource": {
            "resourceType": "Organization",
            "id": "d2a552f4-e2ec-4c88-b4f8-daf7dd201402",
            "meta": {
                "profile": [ "https://fhir.hl7.org.uk/STU3/StructureDefinition/CareConnect-Organization-1" ]
            },
            "type": [ {
                "coding": [ {
                    "code": "dept",
                    "display": "Microbiology"
                } ]
            } ],
            "name": "ST JAMES'S UNIVERSITY HOSPITAL"
        }
    }, {
        "fullUrl": "urn:uuid:d3cb5b8f-1cbc-4204-8015-7c27526f7cf0",
        "resource": {
            "resourceType": "ProcedureRequest",
            "id": "d3cb5b8f-1cbc-4204-8015-7c27526f7cf0",
            "meta": {
                "profile": [ "https://fhir.hl7.org.uk/STU3/StructureDefinition/CareConnect-ProcedureRequest-1" ]
            },
            "status": "unknown",
            "intent": "order",
            "code": {
                "text": "unknown"
            },
            "subject": {
                "reference": "urn:uuid:9dfd8952-88da-4cad-8a6c-edabc9cb4f78"
            },
            "requester": {
                "agent": {
                    "reference": "urn:uuid:80973674-d365-4eb4-805f-6e42c19b51e7"
                },
                "onBehalfOf": {
                    "reference": "urn:uuid:d4bed954-754c-4069-ab84-87119fe67679"
                }
            },
            "performer": {
                "reference": "urn:uuid:59d6e849-bdb8-4160-905c-4e6fce2676d0"
            },
            "note": [ {
                "text": "TIRED ALL THE TIME, LOW Hb"
            }, {
                "text": "COELIAC"
            } ]
        }
    }, {
        "fullUrl": "urn:uuid:ad2554fe-f6a9-4516-9be7-d7caa7eb7f5d",
        "resource": {
            "resourceType": "DiagnosticReport",
            "id": "ad2554fe-f6a9-4516-9be7-d7caa7eb7f5d",
            "meta": {
                "profile": [ "https://fhir.hl7.org.uk/STU3/StructureDefinition/CareConnect-DiagnosticReport-1" ]
            },
            "identifier": [ {
                "system": "https://tools.ietf.org/html/rfc4122",
                "value": "15/CH000037K/200010191704"
            } ],
            "basedOn": [ {
                "reference": "urn:uuid:d3cb5b8f-1cbc-4204-8015-7c27526f7cf0"
            } ],
            "status": "unknown",
            "code": {
                "coding": [ {
                    "system": "http://snomed.info/sct",
                    "code": "721981007",
                    "display": "Diagnostic studies report"
                } ]
            },
            "subject": {
                "reference": "urn:uuid:9dfd8952-88da-4cad-8a6c-edabc9cb4f78"
            },
            "issued": "2010-02-25T15:41:00.000+00:00",
            "performer": [ {
                "actor": {
                    "reference": "urn:uuid:d2a552f4-e2ec-4c88-b4f8-daf7dd201402"
                }
            }, {
                "actor": {
                    "reference": "urn:uuid:59d6e849-bdb8-4160-905c-4e6fce2676d0"
=======
        },
        {
            "fullUrl": "urn:uuid:b38639d5-6827-43e1-a1f7-fbbeaab0f378",
            "resource": {
                "resourceType": "Organization",
                "id": "b38639d5-6827-43e1-a1f7-fbbeaab0f378",
                "meta": {
                    "profile": [
                        "https://fhir.hl7.org.uk/STU3/StructureDefinition/CareConnect-Organization-1"
                    ]
                },
                "name": "NORTH DOWN GP"
            }
        },
        {
            "fullUrl": "urn:uuid:f1f796a9-9b3c-4cb9-8f95-c1bcda5ae281",
            "resource": {
                "resourceType": "Practitioner",
                "id": "f1f796a9-9b3c-4cb9-8f95-c1bcda5ae281",
                "meta": {
                    "profile": [
                        "https://fhir.hl7.org.uk/STU3/StructureDefinition/CareConnect-Practitioner-1"
                    ]
                }
            }
        },
        {
            "fullUrl": "urn:uuid:1ec4a8b5-382f-4587-9f5b-ec5413eca12b",
            "resource": {
                "resourceType": "Organization",
                "id": "1ec4a8b5-382f-4587-9f5b-ec5413eca12b",
                "meta": {
                    "profile": [
                        "https://fhir.hl7.org.uk/STU3/StructureDefinition/CareConnect-Organization-1"
                    ]
                },
                "type": [
                    {
                        "coding": [
                            {
                                "code": "dept",
                                "display": "Microbiology"
                            }
                        ]
                    }
                ],
                "name": "ST JAMES'S UNIVERSITY HOSPITAL"
            }
        },
        {
            "fullUrl": "urn:uuid:9c87188f-4456-4211-90ef-f0fa3fbafb20",
            "resource": {
                "resourceType": "ProcedureRequest",
                "id": "9c87188f-4456-4211-90ef-f0fa3fbafb20",
                "meta": {
                    "profile": [
                        "https://fhir.hl7.org.uk/STU3/StructureDefinition/CareConnect-ProcedureRequest-1"
                    ]
                },
                "status": "unknown",
                "intent": "order",
                "code": {
                    "text": "unknown"
                },
                "subject": {
                    "reference": "urn:uuid:64b5f8ad-ccfb-4d75-a7e6-0903e68ec1ae"
                },
                "requester": {
                    "agent": {
                        "reference": "urn:uuid:f62cf5f8-fa46-4fa5-8924-914e43259cf8"
                    },
                    "onBehalfOf": {
                        "reference": "urn:uuid:b38639d5-6827-43e1-a1f7-fbbeaab0f378"
                    }
                },
                "performer": {
                    "reference": "urn:uuid:f1f796a9-9b3c-4cb9-8f95-c1bcda5ae281"
                },
                "note": [
                    {
                        "text": "TIRED ALL THE TIME, LOW Hb"
                    },
                    {
                        "text": "COELIAC"
                    }
                ]
            }
        },
        {
            "fullUrl": "urn:uuid:959037f3-7956-4b75-9cb6-89983bf9eb6c",
            "resource": {
                "resourceType": "DiagnosticReport",
                "id": "959037f3-7956-4b75-9cb6-89983bf9eb6c",
                "meta": {
                    "profile": [
                        "https://fhir.hl7.org.uk/STU3/StructureDefinition/CareConnect-DiagnosticReport-1"
                    ]
                },
                "identifier": [
                    {
                        "system": "https://tools.ietf.org/html/rfc4122",
                        "value": "15/CH000037K/200010191704"
                    }
                ],
                "basedOn": [
                    {
                        "reference": "urn:uuid:9c87188f-4456-4211-90ef-f0fa3fbafb20"
                    }
                ],
                "status": "appended",
                "code": {
                    "coding": [
                        {
                            "system": "http://snomed.info/sct",
                            "code": "721981007",
                            "display": "Diagnostic studies report"
                        }
                    ]
                },
                "subject": {
                    "reference": "urn:uuid:64b5f8ad-ccfb-4d75-a7e6-0903e68ec1ae"
                },
                "issued": "2010-02-25T15:41:00.000+00:00",
                "performer": [
                    {
                        "actor": {
                            "reference": "urn:uuid:1ec4a8b5-382f-4587-9f5b-ec5413eca12b"
                        }
                    },
                    {
                        "actor": {
                            "reference": "urn:uuid:f1f796a9-9b3c-4cb9-8f95-c1bcda5ae281"
                        }
                    }
                ],
                "specimen": [
                    {
                        "reference": "urn:uuid:d4643d1f-a76b-491e-b00b-5ba31edbd1f0"
                    }
                ],
                "result": [
                    {
                        "reference": "urn:uuid:e996d51b-1d14-4065-963e-62f20418eb87"
                    }
                ]
            }
        },
        {
            "fullUrl": "urn:uuid:d4643d1f-a76b-491e-b00b-5ba31edbd1f0",
            "resource": {
                "resourceType": "Specimen",
                "id": "d4643d1f-a76b-491e-b00b-5ba31edbd1f0",
                "meta": {
                    "profile": [
                        "https://fhir.hl7.org.uk/STU3/StructureDefinition/CareConnect-Specimen-1"
                    ]
                },
                "accessionIdentifier": {
                    "system": "http://lab.acme.org/specimens/2011",
                    "value": "CH000037KA"
                },
                "type": {
                    "coding": [
                        {
                            "system": "http://snomed.info/sct",
                            "display": "VENOUS BLOOD"
                        }
                    ]
                },
                "subject": {
                    "reference": "urn:uuid:64b5f8ad-ccfb-4d75-a7e6-0903e68ec1ae"
                },
                "receivedTime": "2010-02-24T15:41:00+00:00",
                "collection": {
                    "collectedDateTime": "2010-02-23T15:41:00+00:00"
>>>>>>> main
                }
            } ],
            "specimen": [ {
                "reference": "urn:uuid:f023dd10-d44c-4a1b-bc4c-eb524c4e50e9"
            } ],
            "result": [ {
                "reference": "urn:uuid:321fd084-f597-4278-8e65-f8a2ae456ff3"
            } ]
        }
    }, {
        "fullUrl": "urn:uuid:f023dd10-d44c-4a1b-bc4c-eb524c4e50e9",
        "resource": {
            "resourceType": "Specimen",
            "id": "f023dd10-d44c-4a1b-bc4c-eb524c4e50e9",
            "meta": {
                "profile": [ "https://fhir.hl7.org.uk/STU3/StructureDefinition/CareConnect-Specimen-1" ]
            },
            "accessionIdentifier": {
                "system": "http://lab.acme.org/specimens/2011",
                "value": "CH000037KA"
            },
            "type": {
                "coding": [ {
                    "system": "http://snomed.info/sct",
                    "display": "VENOUS BLOOD"
                } ]
            },
            "subject": {
                "reference": "urn:uuid:9dfd8952-88da-4cad-8a6c-edabc9cb4f78"
            },
            "receivedTime": "2010-02-24T15:41:00+00:00",
            "collection": {
                "collectedDateTime": "2010-02-23T15:41:00+00:00"
            }
<<<<<<< HEAD
        }
    }, {
        "fullUrl": "urn:uuid:321fd084-f597-4278-8e65-f8a2ae456ff3",
        "resource": {
            "resourceType": "Observation",
            "id": "321fd084-f597-4278-8e65-f8a2ae456ff3",
            "meta": {
                "profile": [ "https://fhir.hl7.org.uk/STU3/StructureDefinition/CareConnect-Observation-1" ]
            },
            "status": "unknown",
            "code": {
                "coding": [ {
                    "system": "http://read.info/readv2",
                    "code": "42R4.",
                    "display": "Serum ferritin"
                } ]
            },
            "subject": {
                "reference": "urn:uuid:9dfd8952-88da-4cad-8a6c-edabc9cb4f78"
            },
            "performer": [ {
                "reference": "urn:uuid:d2a552f4-e2ec-4c88-b4f8-daf7dd201402"
            }, {
                "reference": "urn:uuid:59d6e849-bdb8-4160-905c-4e6fce2676d0"
            } ],
            "valueQuantity": {
                "value": 11,
                "unit": "ng/mL"
            },
            "specimen": {
                "reference": "urn:uuid:f023dd10-d44c-4a1b-bc4c-eb524c4e50e9"
            },
            "referenceRange": [ {
                "low": {
                    "value": 10
=======
        },
        {
            "fullUrl": "urn:uuid:e996d51b-1d14-4065-963e-62f20418eb87",
            "resource": {
                "resourceType": "Observation",
                "id": "e996d51b-1d14-4065-963e-62f20418eb87",
                "meta": {
                    "profile": [
                        "https://fhir.hl7.org.uk/STU3/StructureDefinition/CareConnect-Observation-1"
                    ]
                },
                "status": "unknown",
                "code": {
                    "coding": [
                        {
                            "system": "http://read.info/readv2",
                            "code": "42R4.",
                            "display": "Serum ferritin"
                        }
                    ]
                },
                "subject": {
                    "reference": "urn:uuid:64b5f8ad-ccfb-4d75-a7e6-0903e68ec1ae"
                },
                "performer": [
                    {
                        "reference": "urn:uuid:1ec4a8b5-382f-4587-9f5b-ec5413eca12b"
                    },
                    {
                        "reference": "urn:uuid:f1f796a9-9b3c-4cb9-8f95-c1bcda5ae281"
                    }
                ],
                "valueQuantity": {
                    "value": 11,
                    "unit": "ng/mL"
                },
                "specimen": {
                    "reference": "urn:uuid:d4643d1f-a76b-491e-b00b-5ba31edbd1f0"
>>>>>>> main
                },
                "high": {
                    "value": 200
                }
            } ]
        }
    } ]
}