{
    "resourceType": "Bundle",
    "id": "6c0f62d5-e446-49b5-bd20-563da4e1f0aa",
    "meta": {
        "lastUpdated": "2021-06-08T10:47:53.035+01:00",
        "profile": [
            "https://fhir.nhs.uk/STU3/StructureDefinition/ITK-Message-Bundle-1"
        ]
    },
    "identifier": {
        "system": "https://tools.ietf.org/html/rfc4122",
        "value": "63843346-75c2-467e-9048-d0f09ab181c7"
    },
    "type": "message",
    "entry": [
        {
            "fullUrl": "urn:uuid:152cffaa-440b-487e-8bbe-dae79cf2c347",
            "resource": {
                "resourceType": "MessageHeader",
                "id": "152cffaa-440b-487e-8bbe-dae79cf2c347",
                "meta": {
                    "profile": [
                        "https://fhir.nhs.uk/STU3/StructureDefinition/ITK-MessageHeader-2"
                    ]
                },
                "extension": [
                    {
                        "url": "https://fhir.nhs.uk/STU3/StructureDefinition/Extension-ITK-MessageHandling-2",
                        "extension": [
                            {
                                "url": "BusAckRequested",
                                "valueBoolean": true
                            },
                            {
                                "url": "InfAckRequested",
                                "valueBoolean": true
                            },
                            {
                                "url": "RecipientType",
                                "valueCoding": {
                                    "system": "https://fhir.nhs.uk/STU3/CodeSystem/ITK-RecipientType-1",
                                    "code": "FA",
                                    "display": "For Action"
                                }
                            },
                            {
                                "url": "SenderReference",
                                "valueString": "None"
                            },
                            {
                                "url": "LocalExtension",
                                "valueString": "None"
                            }
                        ]
                    }
                ],
                "event": {
                    "system": "https://fhir.nhs.uk/STU3/CodeSystem/ITK-MessageEvent-2",
                    "code": "ITK012M",
                    "display": "ITK National Pathology"
                },
                "receiver": {
                    "reference": "urn:uuid:e1a63c26-4a78-49df-8ff9-208879ad4405"
                },
                "sender": {
                    "reference": "urn:uuid:7b101844-5db8-446d-9415-087a396f5f9d"
                },
                "timestamp": "2010-03-01T17:51:00.000+00:00",
                "source": {
                    "endpoint": "lab_results_mailbox"
                },
                "responsible": {
                    "reference": "urn:uuid:7b101844-5db8-446d-9415-087a396f5f9d"
                },
                "focus": [
                    {
                        "reference": "urn:uuid:4963bd03-2288-472d-a5ed-fbbdd3388da8"
                    }
                ]
            }
        },
        {
            "fullUrl": "urn:uuid:81ff28c6-7225-464d-aa99-724bc4ca8284",
            "resource": {
                "resourceType": "Patient",
                "id": "81ff28c6-7225-464d-aa99-724bc4ca8284",
                "meta": {
                    "profile": [
                        "https://fhir.hl7.org.uk/STU3/StructureDefinition/CareConnect-Patient-1"
                    ]
                },
                "identifier": [
                    {
                        "extension": [
                            {
                                "url": "https://fhir.hl7.org.uk/STU3/StructureDefinition/Extension-CareConnect-NHSNumberVerificationStatus-1",
                                "valueCodeableConcept": {
                                    "coding": [
                                        {
                                            "system": "https://fhir.hl7.org.uk/STU3/CodeSystem/CareConnect-NHSNumberVerificationStatus-1",
                                            "code": "01",
                                            "display": "Number present and verified"
                                        }
                                    ]
                                }
                            }
                        ],
                        "system": "https://fhir.nhs.uk/Id/nhs-number",
                        "value": "9435505600"
                    }
                ],
                "name": [
                    {
                        "use": "official",
                        "family": "HENDERSON"
                    }
                ],
                "gender": "female",
                "address": [
                    {
                        "line": [
                            "4-5",
                            "WESLEY PLACE",
                            "SOWERBY BRIDGE"
                        ],
                        "postalCode": "HX6 1JQ"
                    }
                ]
            }
        },
        {
            "fullUrl": "urn:uuid:e997430c-07bd-4863-83c4-bd20e63d5690",
            "resource": {
                "resourceType": "Practitioner",
                "id": "e997430c-07bd-4863-83c4-bd20e63d5690",
                "meta": {
                    "profile": [
                        "https://fhir.hl7.org.uk/STU3/StructureDefinition/CareConnect-Practitioner-1"
                    ]
                },
                "identifier": [
                    {
                        "value": "G3380314"
                    }
                ],
                "name": [
                    {
                        "text": "SCOTT"
                    }
                ]
            }
        },
        {
            "fullUrl": "urn:uuid:e1a63c26-4a78-49df-8ff9-208879ad4405",
            "resource": {
                "resourceType": "Organization",
                "id": "e1a63c26-4a78-49df-8ff9-208879ad4405",
                "meta": {
                    "profile": [
                        "https://fhir.hl7.org.uk/STU3/StructureDefinition/CareConnect-Organization-1"
                    ]
                },
                "name": "NORTH DOWN GP"
            }
        },
        {
            "fullUrl": "urn:uuid:3cd74986-d2d0-40ba-814f-b59a165aa909",
            "resource": {
                "resourceType": "Practitioner",
                "id": "3cd74986-d2d0-40ba-814f-b59a165aa909",
                "meta": {
                    "profile": [
                        "https://fhir.hl7.org.uk/STU3/StructureDefinition/CareConnect-Practitioner-1"
                    ]
                }
            }
        },
        {
            "fullUrl": "urn:uuid:7b101844-5db8-446d-9415-087a396f5f9d",
            "resource": {
                "resourceType": "Organization",
                "id": "7b101844-5db8-446d-9415-087a396f5f9d",
                "meta": {
                    "profile": [
                        "https://fhir.hl7.org.uk/STU3/StructureDefinition/CareConnect-Organization-1"
                    ]
                },
                "type": [
                    {
                        "coding": [
                            {
                                "code": "dept",
                                "display": "Microbiology"
                            }
                        ]
                    }
                ],
                "name": "ST JAMES'S UNIVERSITY HOSPITAL"
            }
        },
        {
            "fullUrl": "urn:uuid:f86648d1-f6c2-4243-bbbf-cbbaf431ab1a",
            "resource": {
                "resourceType": "ProcedureRequest",
                "id": "f86648d1-f6c2-4243-bbbf-cbbaf431ab1a",
                "meta": {
                    "profile": [
                        "https://fhir.hl7.org.uk/STU3/StructureDefinition/CareConnect-ProcedureRequest-1"
                    ]
                },
                "status": "active",
                "intent": "order",
                "code": {
                    "coding": [
                        {
                            "system": "http://snomed.info/sct",
                            "code": "15220000",
                            "display": "Laboratory test (procedure)"
                        }
                    ]
                },
                "subject": {
                    "reference": "urn:uuid:81ff28c6-7225-464d-aa99-724bc4ca8284"
                },
                "requester": {
                    "agent": {
                        "reference": "urn:uuid:e997430c-07bd-4863-83c4-bd20e63d5690"
                    },
                    "onBehalfOf": {
                        "reference": "urn:uuid:e1a63c26-4a78-49df-8ff9-208879ad4405"
                    }
                },
                "performer": {
                    "reference": "urn:uuid:3cd74986-d2d0-40ba-814f-b59a165aa909"
                },
                "note": [
                    {
                        "text": "PAINS HANDS AND FEET."
                    }
                ]
            }
        },
        {
            "fullUrl": "urn:uuid:4963bd03-2288-472d-a5ed-fbbdd3388da8",
            "resource": {
                "resourceType": "DiagnosticReport",
                "id": "4963bd03-2288-472d-a5ed-fbbdd3388da8",
                "meta": {
                    "profile": [
                        "https://fhir.hl7.org.uk/STU3/StructureDefinition/CareConnect-DiagnosticReport-1"
                    ]
                },
                "identifier": [
                    {
                        "system": "https://tools.ietf.org/html/rfc4122",
                        "value": "15/CH000038L/200010191704"
                    }
                ],
                "basedOn": [
                    {
                        "reference": "urn:uuid:f86648d1-f6c2-4243-bbbf-cbbaf431ab1a"
                    }
                ],
                "status": "preliminary",
                "code": {
                    "coding": [
                        {
                            "system": "http://snomed.info/sct",
                            "code": "721981007",
                            "display": "Diagnostic studies report"
                        }
                    ]
                },
                "subject": {
                    "reference": "urn:uuid:81ff28c6-7225-464d-aa99-724bc4ca8284"
                },
                "issued": "2010-02-25T15:41:00.000+00:00",
                "performer": [
                    {
                        "actor": {
                            "reference": "urn:uuid:7b101844-5db8-446d-9415-087a396f5f9d"
                        }
                    },
                    {
                        "actor": {
                            "reference": "urn:uuid:3cd74986-d2d0-40ba-814f-b59a165aa909"
                        }
                    }
                ],
                "specimen": [
                    {
                        "reference": "urn:uuid:7f3e45c0-a0ca-43f9-b860-44006487c7d9"
                    }
                ],
                "result": [
                    {
                        "reference": "urn:uuid:6a11ff8f-186e-43d8-87fc-fd8005f93dfd"
                    }
                ]
            }
        },
        {
            "fullUrl": "urn:uuid:7f3e45c0-a0ca-43f9-b860-44006487c7d9",
            "resource": {
                "resourceType": "Specimen",
                "id": "7f3e45c0-a0ca-43f9-b860-44006487c7d9",
                "meta": {
                    "profile": [
                        "https://fhir.hl7.org.uk/STU3/StructureDefinition/CareConnect-Specimen-1"
                    ]
                },
                "type": {
                    "coding": [
                        {
                            "display": "VENOUS BLOOD"
                        }
                    ]
                },
                "subject": {
                    "reference": "urn:uuid:81ff28c6-7225-464d-aa99-724bc4ca8284"
                },
                "receivedTime": "2010-02-24T15:41:00+00:00"
            }
        },
        {
            "fullUrl": "urn:uuid:6a11ff8f-186e-43d8-87fc-fd8005f93dfd",
            "resource": {
                "resourceType": "Observation",
                "id": "6a11ff8f-186e-43d8-87fc-fd8005f93dfd",
                "meta": {
                    "profile": [
                        "https://fhir.hl7.org.uk/STU3/StructureDefinition/CareConnect-Observation-1"
                    ]
                },
                "status": "unknown",
                "code": {
                    "coding": [
                        {
                            "system": "http://read.info/readv2",
                            "code": "43F3.",
                            "display": "R.A. latex test"
                        }
                    ]
                },
                "subject": {
                    "reference": "urn:uuid:81ff28c6-7225-464d-aa99-724bc4ca8284"
                },
                "performer": [
                    {
                        "reference": "urn:uuid:7b101844-5db8-446d-9415-087a396f5f9d"
                    },
                    {
                        "reference": "urn:uuid:3cd74986-d2d0-40ba-814f-b59a165aa909"
                    }
                ],
                "comment": "NEGATIVE",
                "specimen": {
                    "reference": "urn:uuid:7f3e45c0-a0ca-43f9-b860-44006487c7d9"
                }
            }
        }
    ]
}