{
    "resourceType": "Bundle",
    "id": "ed2545c5-692d-4739-a806-206bdf6cf6c3",
    "meta": {
        "lastUpdated": "2021-04-22T15:57:40.782+02:00",
        "profile": [
            "https://fhir.nhs.uk/STU3/StructureDefinition/ITK-Message-Bundle-1"
        ]
    },
    "identifier": {
        "system": "https://tools.ietf.org/html/rfc4122",
        "value": "35d825b9-569d-4b9c-a770-152afbee5458"
    },
    "type": "message",
    "entry": [
        {
            "fullUrl": "urn:uuid:ea64d665-81f3-4fad-90d7-141d10105fcc",
            "resource": {
                "resourceType": "MessageHeader",
                "id": "ea64d665-81f3-4fad-90d7-141d10105fcc",
                "meta": {
                    "profile": [
                        "https://fhir.nhs.uk/STU3/StructureDefinition/ITK-MessageHeader-2"
                    ]
                },
                "extension": [
                    {
                        "url": "https://fhir.nhs.uk/STU3/StructureDefinition/Extension-ITK-MessageHandling-2",
                        "extension": [
                            {
                                "url": "BusAckRequested",
                                "valueBoolean": true
                            },
                            {
                                "url": "InfAckRequested",
                                "valueBoolean": true
                            },
                            {
                                "url": "RecipientType",
                                "valueCoding": {
                                    "system": "https://fhir.nhs.uk/STU3/CodeSystem/ITK-RecipientType-1",
                                    "code": "FA",
                                    "display": "For Action"
                                }
                            },
                            {
                                "url": "SenderReference",
                                "valueString": "None"
                            },
                            {
                                "url": "LocalExtension",
                                "valueString": "None"
                            }
                        ]
                    }
                ],
                "event": {
                    "system": "https://fhir.nhs.uk/STU3/CodeSystem/ITK-MessageEvent-2",
                    "code": "ITK012M",
                    "display": "ITK National Pathology"
                },
                "receiver": {
                    "reference": "urn:uuid:96018eb1-fb5d-4b8e-880d-8440f6b04141"
                },
                "sender": {
                    "reference": "urn:uuid:0fb0c2fd-d168-4307-8525-ebc0d3f85b3b"
                },
                "source": {
                    "endpoint": "lab_results_mailbox"
                },
                "responsible": {
                    "reference": "urn:uuid:0fb0c2fd-d168-4307-8525-ebc0d3f85b3b"
                },
                "focus": [
                    {
                        "reference": "urn:uuid:aa2c9715-0c03-4e27-a464-ff77b8753478"
                    }
                ]
            }
        },
        {
            "fullUrl": "urn:uuid:4eec33c5-0b5d-4f05-9758-0f229e88e5ac",
            "resource": {
                "resourceType": "Patient",
                "id": "4eec33c5-0b5d-4f05-9758-0f229e88e5ac",
                "meta": {
                    "profile": [
                        "https://fhir.hl7.org.uk/STU3/StructureDefinition/CareConnect-Patient-1"
                    ]
                },
                "identifier": [
                    {
                        "system": "https://fhir.nhs.uk/Id/nhs-number",
                        "value": "9435505600"
                    }
                ],
                "name": [
                    {
                        "family": "HENDERSON"
                    }
                ],
                "gender": "female",
                "address": [
                    {
                        "line": [
                            "4-5",
                            "WESLEY PLACE",
                            "SOWERBY BRIDGE"
                        ],
                        "postalCode": "HX6 1JQ"
                    }
                ]
            }
        },
        {
            "fullUrl": "urn:uuid:47da3bab-435f-4256-b17e-210cb3204f00",
            "resource": {
                "resourceType": "Practitioner",
                "id": "47da3bab-435f-4256-b17e-210cb3204f00",
                "meta": {
                    "profile": [
                        "https://fhir.hl7.org.uk/STU3/StructureDefinition/CareConnect-Practitioner-1"
                    ]
                },
                "identifier": [
                    {
                        "system": "https://fhir.nhs.uk/Id/sds-user-id",
                        "value": "G3380314"
                    }
                ],
                "name": [
                    {
                        "text": "SCOTT"
                    }
                ]
            }
        },
        {
            "fullUrl": "urn:uuid:96018eb1-fb5d-4b8e-880d-8440f6b04141",
            "resource": {
                "resourceType": "Organization",
                "id": "96018eb1-fb5d-4b8e-880d-8440f6b04141",
                "meta": {
                    "profile": [
                        "https://fhir.hl7.org.uk/STU3/StructureDefinition/CareConnect-Organization-1"
                    ]
                },
                "name": "NORTH DOWN GP"
            }
        },
        {
            "fullUrl": "urn:uuid:552896b7-ad44-485b-883c-d210a8ed241a",
            "resource": {
                "resourceType": "Practitioner",
                "id": "552896b7-ad44-485b-883c-d210a8ed241a",
                "meta": {
                    "profile": [
                        "https://fhir.hl7.org.uk/STU3/StructureDefinition/CareConnect-Practitioner-1"
                    ]
                }
            }
        },
        {
            "fullUrl": "urn:uuid:0fb0c2fd-d168-4307-8525-ebc0d3f85b3b",
            "resource": {
                "resourceType": "Organization",
                "id": "0fb0c2fd-d168-4307-8525-ebc0d3f85b3b",
                "meta": {
                    "profile": [
                        "https://fhir.hl7.org.uk/STU3/StructureDefinition/CareConnect-Organization-1"
                    ]
                },
                "type": [
                    {
                        "coding": [
                            {
                                "code": "dept",
                                "display": "Microbiology"
                            }
                        ]
                    }
                ],
                "name": "ST JAMES'S UNIVERSITY HOSPITAL"
            }
        },
        {
            "fullUrl": "urn:uuid:8a404be1-fcf8-40ac-8ea7-3b45ab99a9c2",
            "resource": {
                "resourceType": "ProcedureRequest",
                "id": "8a404be1-fcf8-40ac-8ea7-3b45ab99a9c2",
                "meta": {
                    "profile": [
                        "https://fhir.hl7.org.uk/STU3/StructureDefinition/CareConnect-ProcedureRequest-1"
                    ]
                },
                "status": "unknown",
                "intent": "order",
                "code": {
                    "text": "unknown"
                },
                "subject": {
                    "reference": "urn:uuid:4eec33c5-0b5d-4f05-9758-0f229e88e5ac"
                },
                "requester": {
                    "agent": {
                        "reference": "urn:uuid:47da3bab-435f-4256-b17e-210cb3204f00"
                    },
                    "onBehalfOf": {
                        "reference": "urn:uuid:96018eb1-fb5d-4b8e-880d-8440f6b04141"
                    }
                },
                "performer": {
                    "reference": "urn:uuid:552896b7-ad44-485b-883c-d210a8ed241a"
                },
                "note": [
                    {
                        "text": "PAINS HANDS AND FEET."
                    }
                ]
            }
        },
        {
            "fullUrl": "urn:uuid:aa2c9715-0c03-4e27-a464-ff77b8753478",
            "resource": {
                "resourceType": "DiagnosticReport",
                "id": "aa2c9715-0c03-4e27-a464-ff77b8753478",
                "meta": {
                    "profile": [
                        "https://fhir.hl7.org.uk/STU3/StructureDefinition/CareConnect-DiagnosticReport-1"
                    ]
                },
                "identifier": [
                    {
                        "value": "15/CH000038L/200010191704"
                    }
                ],
                "basedOn": [
                    {
                        "reference": "urn:uuid:8a404be1-fcf8-40ac-8ea7-3b45ab99a9c2"
                    }
                ],
                "status": "unknown",
                "code": {
                    "coding": [
                        {
                            "system": "http://snomed.info/sct",
                            "code": "721981007",
                            "display": "Diagnostic studies report"
                        }
                    ]
                },
                "subject": {
                    "reference": "urn:uuid:4eec33c5-0b5d-4f05-9758-0f229e88e5ac"
                },
                "issued": "2010-02-25T16:41:00.000+01:00",
                "performer": [
                    {
                        "actor": {
                            "reference": "urn:uuid:0fb0c2fd-d168-4307-8525-ebc0d3f85b3b"
                        }
                    },
                    {
                        "actor": {
                            "reference": "urn:uuid:552896b7-ad44-485b-883c-d210a8ed241a"
                        }
                    }
                ],
                "specimen": [
                    {
                        "reference": "urn:uuid:2647513d-92bd-4f94-a8ab-53fb839a4963"
                    }
                ],
                "result": [
                    {
                        "reference": "urn:uuid:d1f51062-bdeb-40ce-9cb2-0dc67d84cc40"
                    }
                ]
            }
        },
        {
            "fullUrl": "urn:uuid:2647513d-92bd-4f94-a8ab-53fb839a4963",
            "resource": {
                "resourceType": "Specimen",
                "id": "2647513d-92bd-4f94-a8ab-53fb839a4963",
                "meta": {
                    "profile": [
                        "https://fhir.hl7.org.uk/STU3/StructureDefinition/CareConnect-Specimen-1"
                    ]
                },
                "type": {
                    "coding": [
                        {
                            "system": "http://snomed.info/sct",
                            "display": "VENOUS BLOOD"
                        }
                    ]
                },
                "subject": {
                    "reference": "urn:uuid:4eec33c5-0b5d-4f05-9758-0f229e88e5ac"
                },
                "receivedTime": "2010-02-24T16:41:00+01:00"
            }
        },
        {
            "fullUrl": "urn:uuid:d1f51062-bdeb-40ce-9cb2-0dc67d84cc40",
            "resource": {
                "resourceType": "Observation",
                "id": "d1f51062-bdeb-40ce-9cb2-0dc67d84cc40",
                "meta": {
                    "profile": [
                        "https://fhir.hl7.org.uk/STU3/StructureDefinition/CareConnect-Observation-1"
                    ]
                },
                "status": "unknown",
                "code": {
                    "coding": [
                        {
                            "system": "http://read.info/readv2",
                            "code": "43F3.",
                            "display": "R.A. latex test"
                        }
                    ]
                },
                "subject": {
                    "reference": "urn:uuid:4eec33c5-0b5d-4f05-9758-0f229e88e5ac"
                },
                "performer": [
                    {
                        "reference": "urn:uuid:0fb0c2fd-d168-4307-8525-ebc0d3f85b3b"
                    },
                    {
                        "reference": "urn:uuid:552896b7-ad44-485b-883c-d210a8ed241a"
                    }
                ],
                "comment": "NEGATIVE",
                "specimen": {
                    "reference": "urn:uuid:2647513d-92bd-4f94-a8ab-53fb839a4963"
                }
            }
        }
    ]
}