{
    "resourceType": "Bundle",
    "id": "aa137a33-044b-448d-b03e-95020e107461",
    "meta": {
        "lastUpdated": "2021-06-07T10:18:29.067+01:00",
        "profile": [
            "https://fhir.nhs.uk/STU3/StructureDefinition/ITK-Message-Bundle-1"
        ]
    },
    "identifier": {
        "system": "https://tools.ietf.org/html/rfc4122",
        "value": "3055e277-4039-4f90-8fd1-b8fffa8e6671"
    },
    "type": "message",
    "entry": [
        {
            "fullUrl": "urn:uuid:6e97a35b-77f5-42c1-9a0a-70a333980305",
            "resource": {
                "resourceType": "MessageHeader",
                "id": "6e97a35b-77f5-42c1-9a0a-70a333980305",
                "meta": {
                    "profile": [
                        "https://fhir.nhs.uk/STU3/StructureDefinition/ITK-MessageHeader-2"
                    ]
                },
                "extension": [
                    {
                        "url": "https://fhir.nhs.uk/STU3/StructureDefinition/Extension-ITK-MessageHandling-2",
                        "extension": [
                            {
                                "url": "BusAckRequested",
                                "valueBoolean": true
                            },
                            {
                                "url": "InfAckRequested",
                                "valueBoolean": true
                            },
                            {
                                "url": "RecipientType",
                                "valueCoding": {
                                    "system": "https://fhir.nhs.uk/STU3/CodeSystem/ITK-RecipientType-1",
                                    "code": "FA",
                                    "display": "For Action"
                                }
                            },
                            {
                                "url": "SenderReference",
                                "valueString": "None"
                            },
                            {
                                "url": "LocalExtension",
                                "valueString": "None"
                            }
                        ]
                    }
                ],
                "event": {
                    "system": "https://fhir.nhs.uk/STU3/CodeSystem/ITK-MessageEvent-2",
                    "code": "ITK012M",
                    "display": "ITK National Pathology"
                },
                "receiver": {
                    "reference": "urn:uuid:c7a272c9-836f-48b6-826b-e1d3b2b46b1b"
                },
                "sender": {
                    "reference": "urn:uuid:2dd909bf-1dd9-4f87-b591-86e47a11a387"
                },
                "timestamp": "2010-03-01T17:51:00.000+00:00",
                "source": {
                    "endpoint": "lab_results_mailbox"
                },
                "responsible": {
                    "reference": "urn:uuid:2dd909bf-1dd9-4f87-b591-86e47a11a387"
                },
                "focus": [
                    {
                        "reference": "urn:uuid:7aca5498-6bab-47a1-9e52-ca1ff539fafd"
                    }
                ]
            }
        },
        {
            "fullUrl": "urn:uuid:4f99def2-6ce6-47af-818b-52dbc891aade",
            "resource": {
                "resourceType": "Patient",
                "id": "4f99def2-6ce6-47af-818b-52dbc891aade",
                "meta": {
                    "profile": [
                        "https://fhir.hl7.org.uk/STU3/StructureDefinition/CareConnect-Patient-1"
                    ]
                },
                "identifier": [
                    {
                        "extension": [
                            {
                                "url": "https://fhir.hl7.org.uk/STU3/StructureDefinition/Extension-CareConnect-NHSNumberVerificationStatus-1",
                                "valueCodeableConcept": {
                                    "coding": [
                                        {
                                            "system": "https://fhir.hl7.org.uk/STU3/CodeSystem/CareConnect-NHSNumberVerificationStatus-1",
                                            "code": "01",
                                            "display": "Number present and verified"
                                        }
                                    ]
                                }
                            }
                        ],
                        "system": "https://fhir.nhs.uk/Id/nhs-number",
                        "value": "9435518443"
                    }
                ],
                "name": [
                    {
                        "use": "official",
                        "family": "TSUEI",
                        "given": [
                            "MINGYU"
                        ]
                    }
                ],
                "gender": "female",
                "birthDate": "1967-05-31"
            }
        },
        {
            "fullUrl": "urn:uuid:108f51a5-8e31-47e5-9fee-dc48dfbf23cd",
            "resource": {
                "resourceType": "Practitioner",
                "id": "108f51a5-8e31-47e5-9fee-dc48dfbf23cd",
                "meta": {
                    "profile": [
                        "https://fhir.hl7.org.uk/STU3/StructureDefinition/CareConnect-Practitioner-1"
                    ]
                },
                "name": [
                    {
                        "text": "SCOTT"
                    }
                ]
            }
        },
        {
            "fullUrl": "urn:uuid:c7a272c9-836f-48b6-826b-e1d3b2b46b1b",
            "resource": {
                "resourceType": "Organization",
                "id": "c7a272c9-836f-48b6-826b-e1d3b2b46b1b",
                "meta": {
                    "profile": [
                        "https://fhir.hl7.org.uk/STU3/StructureDefinition/CareConnect-Organization-1"
                    ]
                },
                "name": "NORTH DOWN GP"
            }
        },
        {
            "fullUrl": "urn:uuid:a67ded1d-aded-4a3f-812d-e56569ae2829",
            "resource": {
                "resourceType": "Practitioner",
                "id": "a67ded1d-aded-4a3f-812d-e56569ae2829",
                "meta": {
                    "profile": [
                        "https://fhir.hl7.org.uk/STU3/StructureDefinition/CareConnect-Practitioner-1"
                    ]
                },
                "identifier": [
                    {
                        "system": "https://fhir.nhs.uk/Id/sds-user-id",
                        "value": "C1357930"
                    }
                ],
                "name": [
                    {
                        "text": "DR C CURLEY"
                    }
                ]
            }
        },
        {
            "fullUrl": "urn:uuid:2dd909bf-1dd9-4f87-b591-86e47a11a387",
            "resource": {
                "resourceType": "Organization",
                "id": "2dd909bf-1dd9-4f87-b591-86e47a11a387",
                "meta": {
                    "profile": [
                        "https://fhir.hl7.org.uk/STU3/StructureDefinition/CareConnect-Organization-1"
                    ]
                },
                "type": [
                    {
                        "coding": [
                            {
                                "code": "dept",
                                "display": "Microbiology"
                            }
                        ]
                    }
                ],
                "name": "ST JAMES'S UNIVERSITY HOSPITAL"
            }
        },
        {
            "fullUrl": "urn:uuid:bc062537-ec63-4ac7-b095-cd15cde40e39",
            "resource": {
                "resourceType": "ProcedureRequest",
                "id": "bc062537-ec63-4ac7-b095-cd15cde40e39",
                "meta": {
                    "profile": [
                        "https://fhir.hl7.org.uk/STU3/StructureDefinition/CareConnect-ProcedureRequest-1"
                    ]
                },
                "status": "active",
                "intent": "order",
                "code": {
                    "text": "unknown"
                },
                "subject": {
                    "reference": "urn:uuid:4f99def2-6ce6-47af-818b-52dbc891aade"
                },
                "requester": {
                    "agent": {
                        "reference": "urn:uuid:108f51a5-8e31-47e5-9fee-dc48dfbf23cd"
                    },
                    "onBehalfOf": {
                        "reference": "urn:uuid:c7a272c9-836f-48b6-826b-e1d3b2b46b1b"
                    }
                },
                "performer": {
                    "reference": "urn:uuid:a67ded1d-aded-4a3f-812d-e56569ae2829"
                }
            }
        },
        {
            "fullUrl": "urn:uuid:7aca5498-6bab-47a1-9e52-ca1ff539fafd",
            "resource": {
                "resourceType": "DiagnosticReport",
                "id": "7aca5498-6bab-47a1-9e52-ca1ff539fafd",
                "meta": {
                    "profile": [
                        "https://fhir.hl7.org.uk/STU3/StructureDefinition/CareConnect-DiagnosticReport-1"
                    ]
                },
                "identifier": [
                    {
                        "system": "https://tools.ietf.org/html/rfc4122",
                        "value": "15/CH000063K/200010191704"
                    }
                ],
                "basedOn": [
                    {
                        "reference": "urn:uuid:bc062537-ec63-4ac7-b095-cd15cde40e39"
                    }
                ],
                "status": "unknown",
                "code": {
                    "coding": [
                        {
                            "system": "http://snomed.info/sct",
                            "code": "721981007",
                            "display": "Diagnostic studies report"
                        }
                    ]
                },
                "subject": {
                    "reference": "urn:uuid:4f99def2-6ce6-47af-818b-52dbc891aade"
                },
                "issued": "2010-02-25T15:41:00.000+00:00",
                "performer": [
                    {
                        "actor": {
                            "reference": "urn:uuid:2dd909bf-1dd9-4f87-b591-86e47a11a387"
                        }
                    },
                    {
                        "actor": {
                            "reference": "urn:uuid:a67ded1d-aded-4a3f-812d-e56569ae2829"
                        }
                    }
                ]
            }
        }
    ]
}