{
    "resourceType": "Bundle",
    "id": "c47b1212-ad92-4084-a9db-41dbb2dac461",
    "meta": {
        "lastUpdated": "2021-06-07T12:21:48.129+01:00",
        "profile": [ "https://fhir.nhs.uk/STU3/StructureDefinition/ITK-Message-Bundle-1" ]
    },
    "identifier": {
        "system": "https://tools.ietf.org/html/rfc4122",
        "value": "f8e83769-f06c-404a-9219-88988f50c58c"
    },
    "type": "message",
    "entry": [ {
        "fullUrl": "urn:uuid:f6295f0b-7680-4c75-b569-b0ff9c5e65c2",
        "resource": {
            "resourceType": "MessageHeader",
            "id": "f6295f0b-7680-4c75-b569-b0ff9c5e65c2",
            "meta": {
                "profile": [ "https://fhir.nhs.uk/STU3/StructureDefinition/ITK-MessageHeader-2" ]
            },
            "extension": [ {
                "url": "https://fhir.nhs.uk/STU3/StructureDefinition/Extension-ITK-MessageHandling-2",
                "extension": [ {
                    "url": "BusAckRequested",
                    "valueBoolean": true
                }, {
                    "url": "InfAckRequested",
                    "valueBoolean": true
                }, {
                    "url": "RecipientType",
                    "valueCoding": {
                        "system": "https://fhir.nhs.uk/STU3/CodeSystem/ITK-RecipientType-1",
                        "code": "FA",
                        "display": "For Action"
                    }
                }, {
                    "url": "SenderReference",
                    "valueString": "None"
                }, {
                    "url": "LocalExtension",
                    "valueString": "None"
                } ]
            } ],
            "event": {
                "system": "https://fhir.nhs.uk/STU3/CodeSystem/ITK-MessageEvent-2",
                "code": "ITK012M",
                "display": "ITK National Pathology"
            },
            "receiver": {
                "reference": "urn:uuid:c9001fbd-f24f-4eef-85d4-3a7d438edda9"
            },
            "sender": {
                "reference": "urn:uuid:9fe88009-745e-4a0b-ac79-0eb8d9ab0f09"
            },
            "timestamp": "2010-03-01T17:51:00.000+00:00",
            "source": {
                "endpoint": "lab_results_mailbox"
            },
            "responsible": {
                "reference": "urn:uuid:9fe88009-745e-4a0b-ac79-0eb8d9ab0f09"
            },
            "focus": [ {
                "reference": "urn:uuid:ae6b41f5-ef12-4552-8ab4-ecd9806532a7"
            } ]
        }
    }, {
        "fullUrl": "urn:uuid:c3ee1eaa-d7a8-40ca-a619-31db57aabb40",
        "resource": {
            "resourceType": "Patient",
            "id": "c3ee1eaa-d7a8-40ca-a619-31db57aabb40",
            "meta": {
                "profile": [ "https://fhir.hl7.org.uk/STU3/StructureDefinition/CareConnect-Patient-1" ]
            },
            "identifier": [ {
                "extension": [ {
                    "url": "https://fhir.hl7.org.uk/STU3/StructureDefinition/Extension-CareConnect-NHSNumberVerificationStatus-1",
                    "valueCodeableConcept": {
                        "coding": [ {
                            "system": "https://fhir.hl7.org.uk/STU3/CodeSystem/CareConnect-NHSNumberVerificationStatus-1",
                            "code": "01",
                            "display": "Number present and verified"
                        } ]
                    }
                } ],
                "system": "https://fhir.nhs.uk/Id/nhs-number",
                "value": "9435505600"
            } ],
            "name": [ {
                "use": "official",
                "family": "HENDERSON"
            } ],
            "gender": "female",
            "address": [ {
                "line": [ "4-5", "WESLEY PLACE", "SOWERBY BRIDGE" ],
                "postalCode": "HX6 1JQ"
            } ]
        }
    }, {
        "fullUrl": "urn:uuid:f068c33b-6cbf-47c6-8567-43da0520dceb",
        "resource": {
            "resourceType": "Practitioner",
            "id": "f068c33b-6cbf-47c6-8567-43da0520dceb",
            "meta": {
                "profile": [ "https://fhir.hl7.org.uk/STU3/StructureDefinition/CareConnect-Practitioner-1" ]
            },
            "identifier": [ {
                "value": "G3380314"
            } ],
            "name": [ {
                "text": "SCOTT"
            } ]
        }
    }, {
        "fullUrl": "urn:uuid:c9001fbd-f24f-4eef-85d4-3a7d438edda9",
        "resource": {
            "resourceType": "Organization",
            "id": "c9001fbd-f24f-4eef-85d4-3a7d438edda9",
            "meta": {
                "profile": [ "https://fhir.hl7.org.uk/STU3/StructureDefinition/CareConnect-Organization-1" ]
            },
            "name": "NORTH DOWN GP"
        }
    }, {
        "fullUrl": "urn:uuid:3ef2363e-5294-432d-b4d4-169526ef6829",
        "resource": {
            "resourceType": "Practitioner",
            "id": "3ef2363e-5294-432d-b4d4-169526ef6829",
            "meta": {
                "profile": [ "https://fhir.hl7.org.uk/STU3/StructureDefinition/CareConnect-Practitioner-1" ]
            }
        }
    }, {
        "fullUrl": "urn:uuid:9fe88009-745e-4a0b-ac79-0eb8d9ab0f09",
        "resource": {
            "resourceType": "Organization",
            "id": "9fe88009-745e-4a0b-ac79-0eb8d9ab0f09",
            "meta": {
                "profile": [ "https://fhir.hl7.org.uk/STU3/StructureDefinition/CareConnect-Organization-1" ]
            },
            "type": [ {
                "coding": [ {
                    "code": "dept",
                    "display": "Microbiology"
                } ]
            } ],
            "name": "ST JAMES'S UNIVERSITY HOSPITAL"
        }
    }, {
        "fullUrl": "urn:uuid:9b814bf0-57ee-4854-af8d-906a9f65e9f2",
        "resource": {
            "resourceType": "ProcedureRequest",
            "id": "9b814bf0-57ee-4854-af8d-906a9f65e9f2",
            "meta": {
                "profile": [ "https://fhir.hl7.org.uk/STU3/StructureDefinition/CareConnect-ProcedureRequest-1" ]
            },
            "status": "unknown",
            "intent": "order",
            "code": {
                "coding": [ {
                    "system": "http://snomed.info/sct",
                    "code": "15220000",
                    "display": "Laboratory test (procedure)"
                } ]
            },
            "subject": {
                "reference": "urn:uuid:c3ee1eaa-d7a8-40ca-a619-31db57aabb40"
            },
            "requester": {
                "agent": {
                    "reference": "urn:uuid:f068c33b-6cbf-47c6-8567-43da0520dceb"
                },
                "onBehalfOf": {
                    "reference": "urn:uuid:c9001fbd-f24f-4eef-85d4-3a7d438edda9"
                }
            },
            "performer": {
                "reference": "urn:uuid:3ef2363e-5294-432d-b4d4-169526ef6829"
            },
            "note": [ {
                "text": "PAINS HANDS AND FEET."
            } ]
        }
    }, {
        "fullUrl": "urn:uuid:ae6b41f5-ef12-4552-8ab4-ecd9806532a7",
        "resource": {
            "resourceType": "DiagnosticReport",
            "id": "ae6b41f5-ef12-4552-8ab4-ecd9806532a7",
            "meta": {
                "profile": [ "https://fhir.hl7.org.uk/STU3/StructureDefinition/CareConnect-DiagnosticReport-1" ]
            },
            "identifier": [ {
                "system": "https://tools.ietf.org/html/rfc4122",
                "value": "15/CH000038L/200010191704"
            } ],
            "basedOn": [ {
                "reference": "urn:uuid:9b814bf0-57ee-4854-af8d-906a9f65e9f2"
            } ],
            "status": "preliminary",
            "code": {
                "coding": [ {
                    "system": "http://snomed.info/sct",
                    "code": "721981007",
                    "display": "Diagnostic studies report"
                } ]
            },
            "subject": {
                "reference": "urn:uuid:c3ee1eaa-d7a8-40ca-a619-31db57aabb40"
            },
            "issued": "2010-02-25T15:41:00.000+00:00",
            "performer": [ {
                "actor": {
                    "reference": "urn:uuid:9fe88009-745e-4a0b-ac79-0eb8d9ab0f09"
                }
            }, {
                "actor": {
                    "reference": "urn:uuid:3ef2363e-5294-432d-b4d4-169526ef6829"
                }
            } ],
            "specimen": [ {
                "reference": "urn:uuid:3acc0194-4659-41da-a81b-e069c46c63cc"
            } ],
            "result": [ {
                "reference": "urn:uuid:8b74991c-fcb2-4db0-83e5-b3de53e82c1c"
            } ]
        }
    }, {
        "fullUrl": "urn:uuid:3acc0194-4659-41da-a81b-e069c46c63cc",
        "resource": {
            "resourceType": "Specimen",
            "id": "3acc0194-4659-41da-a81b-e069c46c63cc",
            "meta": {
                "profile": [ "https://fhir.hl7.org.uk/STU3/StructureDefinition/CareConnect-Specimen-1" ]
            },
            "type": {
                "coding": [ {
                    "system": "http://snomed.info/sct",
                    "display": "VENOUS BLOOD"
                } ]
            },
            "subject": {
                "reference": "urn:uuid:c3ee1eaa-d7a8-40ca-a619-31db57aabb40"
            },
            "receivedTime": "2010-02-24T15:41:00+00:00"
        }
    }, {
        "fullUrl": "urn:uuid:8b74991c-fcb2-4db0-83e5-b3de53e82c1c",
        "resource": {
            "resourceType": "Observation",
            "id": "8b74991c-fcb2-4db0-83e5-b3de53e82c1c",
            "meta": {
                "profile": [ "https://fhir.hl7.org.uk/STU3/StructureDefinition/CareConnect-Observation-1" ]
            },
            "status": "unknown",
            "code": {
                "coding": [ {
                    "system": "http://read.info/readv2",
                    "code": "43F3.",
                    "display": "R.A. latex test"
                } ]
            },
            "subject": {
                "reference": "urn:uuid:c3ee1eaa-d7a8-40ca-a619-31db57aabb40"
            },
            "performer": [ {
                "reference": "urn:uuid:9fe88009-745e-4a0b-ac79-0eb8d9ab0f09"
            }, {
                "reference": "urn:uuid:3ef2363e-5294-432d-b4d4-169526ef6829"
            } ],
            "comment": "NEGATIVE",
            "specimen": {
                "reference": "urn:uuid:3acc0194-4659-41da-a81b-e069c46c63cc"
            }
        }
    } ]
}