{
  "resourceType": "Bundle",
  "id": "105c2c52-7cf0-422a-aa08-f069b5729437",
  "meta": {
    "lastUpdated": "2021-02-25T10:40:10.561+00:00",
    "profile": [
      "https://fhir.nhs.uk/STU3/StructureDefinition/ITK-Message-Bundle-1"
    ]
  },
  "identifier": {
    "system": "https://tools.ietf.org/html/rfc4122",
    "value": "c31bc85e-4faf-4045-a4a2-c58d7bafdeff"
  },
  "type": "message",
  "entry": [
    {
      "fullUrl": "urn:uuid:4ad99777-9863-4614-b929-16633f870f23",
      "resource": {
        "resourceType": "Patient",
        "id": "4ad99777-9863-4614-b929-16633f870f23",
        "identifier": [
          {
            "system": "https://fhir.nhs.uk/Id/nhs-number",
            "value": "9435492908"
          }
        ],
        "name": [
          {
            "family": "AZIZ",
            "given": [
              "NISMA"
            ]
          }
        ],
        "gender": "female",
        "birthDate": "1945-07-30",
        "address": [
          {
            "line": [
              "FLAT1",
              "59 SANDTOFT ROAD",
              "BELTON",
              "DONCASTER"
            ],
            "postalCode": "DN9 1PJ"
          }
        ]
      }
    },
    {
      "fullUrl": "urn:uuid:314bcfae-c309-4413-abf6-a69cc8c48553",
      "resource": {
        "resourceType": "Practitioner",
        "id": "314bcfae-c309-4413-abf6-a69cc8c48553",
        "identifier": [
          {
            "system": "https://fhir.nhs.uk/Id/sds-user-id",
            "value": "G3380314"
          }
        ],
        "name": [
          {
            "text": "SCOTT"
          }
        ]
      }
    },
    {
      "fullUrl": "urn:uuid:5c94279a-905d-435f-b6dc-149cf790d2cc",
      "resource": {
        "resourceType": "Organization",
        "id": "5c94279a-905d-435f-b6dc-149cf790d2cc",
        "name": "NORTH DOWN GP"
      }
    },
    {
      "fullUrl": "urn:uuid:b019bdf7-53fe-42a6-89f4-24a6ab5be2c4",
      "resource": {
        "resourceType": "Organization",
        "id": "b019bdf7-53fe-42a6-89f4-24a6ab5be2c4",
        "type": [
          {
            "coding": [
              {
                "code": "dept",
                "display": "Microbiology"
              }
            ]
          }
        ],
        "name": "ST JAMES'S UNIVERSITY HOSPITAL"
      }
    },
    {
      "fullUrl": "urn:uuid:8aac2da2-5857-4c71-af22-461557c791ee",
      "resource": {
        "resourceType": "ProcedureRequest",
        "id": "8aac2da2-5857-4c71-af22-461557c791ee",
        "status": "unknown",
        "intent": "?",
        "code": {
          "text": "unknown"
        },
        "subject": {
          "reference": "urn:uuid:4ad99777-9863-4614-b929-16633f870f23"
        },
        "requester": {
          "agent": {
            "reference": "urn:uuid:5c94279a-905d-435f-b6dc-149cf790d2cc"
          }
        },
        "performer": {
          "reference": "urn:uuid:b019bdf7-53fe-42a6-89f4-24a6ab5be2c4"
        },
        "note": [
          {
            "text": "TIRED ALL THE TIME, LOW Hb"
          },
          {
            "text": "COELIAC"
          }
        ]
      }
    },
    {
      "fullUrl": "urn:uuid:6117b6d6-d0a8-4930-a404-611ddece464a",
      "resource": {
        "resourceType": "Specimen",
        "id": "6117b6d6-d0a8-4930-a404-611ddece464a",
        "accessionIdentifier": {
          "system": "http://lab.acme.org/specimens/2011",
          "value": "CH000037KA"
        },
        "type": {
          "coding": [
            {
              "system": "http://snomed.info/sct",
              "display": "VENOUS BLOOD"
            }
          ]
        },
        "subject": {
          "reference": "urn:uuid:4ad99777-9863-4614-b929-16633f870f23"
        },
        "receivedTime": "2010-02-24T15:41:00+00:00",
        "collection": {
          "collectedDateTime": "2010-02-23T15:41:00+00:00"
        }
      }
    },
    {
      "fullUrl": "urn:uuid:899d7b43-9e83-4f82-af3a-f0a742acf16f",
      "resource": {
        "resourceType": "Observation",
        "id": "899d7b43-9e83-4f82-af3a-f0a742acf16f",
        "status": "unknown",
        "code": {
          "coding": [
            {
              "system": "http://loinc.org",
              "code": "42R4.",
              "display": "Serum ferritin"
            }
          ]
        },
        "subject": {
          "reference": "urn:uuid:4ad99777-9863-4614-b929-16633f870f23"
        },
        "performer": [
          {
            "reference": "urn:uuid:b019bdf7-53fe-42a6-89f4-24a6ab5be2c4"
          }
        ],
        "valueQuantity": {
          "value": 11,
          "unit": "ng/mL"
        },
        "specimen": {
          "reference": "urn:uuid:6117b6d6-d0a8-4930-a404-611ddece464a"
        },
        "referenceRange": [
          {
            "low": {
              "value": 10
            },
            "high": {
              "value": 200
            }
          }
        ]
      }
    }
  ]
}
