{
    "resourceType": "Bundle",
    "id": "e9323d1b-ace3-4299-9e98-1f2a6e8058ea",
    "meta": {
        "lastUpdated": "2021-05-28T11:32:03.876+01:00",
        "profile": [
            "https://fhir.nhs.uk/STU3/StructureDefinition/ITK-Message-Bundle-1"
        ]
    },
    "identifier": {
        "system": "https://tools.ietf.org/html/rfc4122",
        "value": "bd21680d-ba60-4a7c-b3d9-e2bdf62105a0"
    },
    "type": "message",
    "entry": [
        {
            "fullUrl": "urn:uuid:04bed9c5-221d-4210-ab94-608ea5c3b913",
            "resource": {
                "resourceType": "MessageHeader",
                "id": "04bed9c5-221d-4210-ab94-608ea5c3b913",
                "meta": {
                    "profile": [
                        "https://fhir.nhs.uk/STU3/StructureDefinition/ITK-MessageHeader-2"
                    ]
                },
                "extension": [
                    {
                        "url": "https://fhir.nhs.uk/STU3/StructureDefinition/Extension-ITK-MessageHandling-2",
                        "extension": [
                            {
                                "url": "BusAckRequested",
                                "valueBoolean": true
                            },
                            {
                                "url": "InfAckRequested",
                                "valueBoolean": true
                            },
                            {
                                "url": "RecipientType",
                                "valueCoding": {
                                    "system": "https://fhir.nhs.uk/STU3/CodeSystem/ITK-RecipientType-1",
                                    "code": "FA",
                                    "display": "For Action"
                                }
                            },
                            {
                                "url": "SenderReference",
                                "valueString": "None"
                            },
                            {
                                "url": "LocalExtension",
                                "valueString": "None"
                            }
                        ]
                    }
                ],
                "event": {
                    "system": "https://fhir.nhs.uk/STU3/CodeSystem/ITK-MessageEvent-2",
                    "code": "ITK012M",
                    "display": "ITK National Pathology"
                },
                "receiver": {
                    "reference": "urn:uuid:ccb28ed7-65ae-41ff-a853-aa4b38aaab14"
                },
                "sender": {
                    "reference": "urn:uuid:ed7761bd-7428-4695-8f31-71052c46baa8"
                },
                "timestamp": "2010-03-01T17:51:00.000+00:00",
                "source": {
                    "endpoint": "lab_results_mailbox"
                },
                "responsible": {
                    "reference": "urn:uuid:ed7761bd-7428-4695-8f31-71052c46baa8"
                },
                "focus": [
                    {
                        "reference": "urn:uuid:ebcb5fb3-4e6b-4466-9513-007fa9b71224"
                    }
                ]
            }
        },
        {
            "fullUrl": "urn:uuid:747a64b2-3694-476c-914f-e18b6491b6fd",
            "resource": {
                "resourceType": "Patient",
                "id": "747a64b2-3694-476c-914f-e18b6491b6fd",
                "meta": {
                    "profile": [
                        "https://fhir.hl7.org.uk/STU3/StructureDefinition/CareConnect-Patient-1"
                    ]
                },
                "identifier": [
                    {
                        "extension": [
                            {
                                "url": "https://fhir.hl7.org.uk/STU3/StructureDefinition/Extension-CareConnect-NHSNumberVerificationStatus-1",
                                "valueCodeableConcept": {
                                    "coding": [
                                        {
                                            "system": "https://fhir.hl7.org.uk/STU3/CodeSystem/CareConnect-NHSNumberVerificationStatus-1",
                                            "code": "01",
                                            "display": "Number present and verified"
                                        }
                                    ]
                                }
                            }
                        ],
                        "system": "https://fhir.nhs.uk/Id/nhs-number",
                        "value": "9435492908"
                    }
                ],
                "name": [
                    {
                        "use": "official",
                        "family": "AZIZ",
                        "given": [
                            "NISMA"
                        ]
                    }
                ],
                "gender": "female",
                "birthDate": "1945-07-30",
                "address": [
                    {
                        "line": [
                            "FLAT1",
                            "59 SANDTOFT ROAD",
                            "BELTON",
                            "DONCASTER"
                        ],
                        "postalCode": "DN9 1PJ"
                    }
                ]
            }
        },
        {
            "fullUrl": "urn:uuid:28ab6585-c1aa-4b1c-bd27-24fdeada586e",
            "resource": {
                "resourceType": "Practitioner",
                "id": "28ab6585-c1aa-4b1c-bd27-24fdeada586e",
                "meta": {
                    "profile": [
                        "https://fhir.hl7.org.uk/STU3/StructureDefinition/CareConnect-Practitioner-1"
                    ]
                },
                "identifier": [
                    {
                        "system": "https://fhir.nhs.uk/Id/sds-user-id",
                        "value": "G3380314"
                    }
                ],
                "name": [
                    {
                        "text": "SCOTT"
                    }
                ]
            }
        },
        {
            "fullUrl": "urn:uuid:ccb28ed7-65ae-41ff-a853-aa4b38aaab14",
            "resource": {
                "resourceType": "Organization",
                "id": "ccb28ed7-65ae-41ff-a853-aa4b38aaab14",
                "meta": {
                    "profile": [
                        "https://fhir.hl7.org.uk/STU3/StructureDefinition/CareConnect-Organization-1"
                    ]
                },
                "name": "NORTH DOWN GP"
            }
        },
        {
            "fullUrl": "urn:uuid:e6d99a16-3381-4f26-a10c-d1183c90cbb1",
            "resource": {
                "resourceType": "Practitioner",
                "id": "e6d99a16-3381-4f26-a10c-d1183c90cbb1",
                "meta": {
                    "profile": [
                        "https://fhir.hl7.org.uk/STU3/StructureDefinition/CareConnect-Practitioner-1"
                    ]
                }
            }
        },
        {
            "fullUrl": "urn:uuid:ed7761bd-7428-4695-8f31-71052c46baa8",
            "resource": {
                "resourceType": "Organization",
                "id": "ed7761bd-7428-4695-8f31-71052c46baa8",
                "meta": {
                    "profile": [
                        "https://fhir.hl7.org.uk/STU3/StructureDefinition/CareConnect-Organization-1"
                    ]
                },
                "type": [
                    {
                        "coding": [
                            {
                                "code": "dept",
                                "display": "Microbiology"
                            }
                        ]
                    }
                ],
                "name": "ST JAMES'S UNIVERSITY HOSPITAL"
            }
        },
        {
            "fullUrl": "urn:uuid:2b09d976-0b6c-40dc-bbed-f6df3a2d7517",
            "resource": {
                "resourceType": "ProcedureRequest",
                "id": "2b09d976-0b6c-40dc-bbed-f6df3a2d7517",
                "meta": {
                    "profile": [
                        "https://fhir.hl7.org.uk/STU3/StructureDefinition/CareConnect-ProcedureRequest-1"
                    ]
                },
                "status": "unknown",
                "intent": "order",
                "code": {
                    "coding": [
                        {
                            "system": "http://snomed.info/sct",
                            "code": "15220000",
                            "display": "Laboratory test (procedure)"
                        }
                    ]
                },
                "subject": {
                    "reference": "urn:uuid:747a64b2-3694-476c-914f-e18b6491b6fd"
                },
                "requester": {
                    "agent": {
                        "reference": "urn:uuid:28ab6585-c1aa-4b1c-bd27-24fdeada586e"
                    },
                    "onBehalfOf": {
                        "reference": "urn:uuid:ccb28ed7-65ae-41ff-a853-aa4b38aaab14"
                    }
                },
                "performer": {
                    "reference": "urn:uuid:e6d99a16-3381-4f26-a10c-d1183c90cbb1"
                },
                "note": [
                    {
                        "text": "TIRED ALL THE TIME, LOW Hb"
                    },
                    {
                        "text": "COELIAC"
                    }
                ]
            }
        },
        {
            "fullUrl": "urn:uuid:ebcb5fb3-4e6b-4466-9513-007fa9b71224",
            "resource": {
                "resourceType": "DiagnosticReport",
                "id": "ebcb5fb3-4e6b-4466-9513-007fa9b71224",
                "meta": {
                    "profile": [
                        "https://fhir.hl7.org.uk/STU3/StructureDefinition/CareConnect-DiagnosticReport-1"
                    ]
                },
                "identifier": [
                    {
                        "system": "https://tools.ietf.org/html/rfc4122",
                        "value": "15/CH000037K/200010191704"
                    }
                ],
                "basedOn": [
                    {
                        "reference": "urn:uuid:2b09d976-0b6c-40dc-bbed-f6df3a2d7517"
                    }
                ],
                "status": "appended",
                "code": {
                    "coding": [
                        {
                            "system": "http://snomed.info/sct",
                            "code": "721981007",
                            "display": "Diagnostic studies report"
                        }
                    ]
                },
                "subject": {
                    "reference": "urn:uuid:747a64b2-3694-476c-914f-e18b6491b6fd"
                },
                "issued": "2010-02-25T15:41:00.000+00:00",
                "performer": [
                    {
                        "actor": {
                            "reference": "urn:uuid:ed7761bd-7428-4695-8f31-71052c46baa8"
                        }
                    },
                    {
                        "actor": {
                            "reference": "urn:uuid:e6d99a16-3381-4f26-a10c-d1183c90cbb1"
                        }
                    }
                ],
                "specimen": [
                    {
                        "reference": "urn:uuid:b4c75cda-ba7a-4ef7-a70a-aa82ca96b7f5"
                    }
                ],
                "result": [
                    {
                        "reference": "urn:uuid:f83826bf-ac28-435f-9830-70244e7de21d"
                    }
                ]
            }
        },
        {
            "fullUrl": "urn:uuid:b4c75cda-ba7a-4ef7-a70a-aa82ca96b7f5",
            "resource": {
                "resourceType": "Specimen",
                "id": "b4c75cda-ba7a-4ef7-a70a-aa82ca96b7f5",
                "meta": {
                    "profile": [
                        "https://fhir.hl7.org.uk/STU3/StructureDefinition/CareConnect-Specimen-1"
                    ]
                },
                "accessionIdentifier": {
                    "system": "http://lab.acme.org/specimens/2011",
                    "value": "CH000037KA"
                },
                "type": {
                    "coding": [
                        {
                            "system": "http://snomed.info/sct",
                            "display": "VENOUS BLOOD"
                        }
                    ]
                },
                "subject": {
                    "reference": "urn:uuid:747a64b2-3694-476c-914f-e18b6491b6fd"
                },
                "receivedTime": "2010-02-24T15:41:00+00:00",
                "collection": {
                    "collectedDateTime": "2010-02-23T15:41:00+00:00"
                }
            }
        },
        {
            "fullUrl": "urn:uuid:f83826bf-ac28-435f-9830-70244e7de21d",
            "resource": {
                "resourceType": "Observation",
                "id": "f83826bf-ac28-435f-9830-70244e7de21d",
                "meta": {
                    "profile": [
                        "https://fhir.hl7.org.uk/STU3/StructureDefinition/CareConnect-Observation-1"
                    ]
                },
                "status": "unknown",
                "code": {
                    "coding": [
                        {
                            "system": "http://read.info/readv2",
                            "code": "42R4.",
                            "display": "Serum ferritin"
                        }
                    ]
                },
                "subject": {
                    "reference": "urn:uuid:747a64b2-3694-476c-914f-e18b6491b6fd"
                },
                "performer": [
                    {
                        "reference": "urn:uuid:ed7761bd-7428-4695-8f31-71052c46baa8"
                    },
                    {
                        "reference": "urn:uuid:e6d99a16-3381-4f26-a10c-d1183c90cbb1"
                    }
                ],
                "valueQuantity": {
                    "value": 11,
                    "unit": "ng/mL"
                },
                "specimen": {
                    "reference": "urn:uuid:b4c75cda-ba7a-4ef7-a70a-aa82ca96b7f5"
                },
                "referenceRange": [
                    {
                        "low": {
                            "value": 10
                        },
                        "high": {
                            "value": 200
                        }
                    }
                ]
            }
        }
    ]
}