{
    "resourceType": "Bundle",
    "id": "7bd90cfd-cae1-43bf-bac3-aa7c414f7a83",
    "meta": {
        "lastUpdated": "2021-06-07T12:21:46.955+01:00",
        "profile": [ "https://fhir.nhs.uk/STU3/StructureDefinition/ITK-Message-Bundle-1" ]
    },
    "identifier": {
        "system": "https://tools.ietf.org/html/rfc4122",
        "value": "fa736dab-64a0-466a-a38c-ebe05e0c9f41"
    },
    "type": "message",
    "entry": [ {
        "fullUrl": "urn:uuid:0ba29610-760b-4497-86ac-39586b6a65b2",
        "resource": {
            "resourceType": "MessageHeader",
            "id": "0ba29610-760b-4497-86ac-39586b6a65b2",
            "meta": {
                "profile": [ "https://fhir.nhs.uk/STU3/StructureDefinition/ITK-MessageHeader-2" ]
            },
            "extension": [ {
                "url": "https://fhir.nhs.uk/STU3/StructureDefinition/Extension-ITK-MessageHandling-2",
                "extension": [ {
                    "url": "BusAckRequested",
                    "valueBoolean": true
                }, {
                    "url": "InfAckRequested",
                    "valueBoolean": true
                }, {
                    "url": "RecipientType",
                    "valueCoding": {
                        "system": "https://fhir.nhs.uk/STU3/CodeSystem/ITK-RecipientType-1",
                        "code": "FA",
                        "display": "For Action"
                    }
                }, {
                    "url": "SenderReference",
                    "valueString": "None"
                }, {
                    "url": "LocalExtension",
                    "valueString": "None"
                } ]
            } ],
            "event": {
                "system": "https://fhir.nhs.uk/STU3/CodeSystem/ITK-MessageEvent-2",
                "code": "ITK012M",
                "display": "ITK National Pathology"
            },
            "receiver": {
                "reference": "urn:uuid:40002aed-d7f8-4379-8a05-e37c03bff774"
            },
            "sender": {
                "reference": "urn:uuid:004d7ae0-4685-48fb-b234-65d2329db882"
            },
            "timestamp": "2010-03-01T17:51:00.000+00:00",
            "source": {
                "endpoint": "lab_results_mailbox"
            },
            "responsible": {
                "reference": "urn:uuid:004d7ae0-4685-48fb-b234-65d2329db882"
            },
            "focus": [ {
                "reference": "urn:uuid:d1d607e6-e7e3-45a7-a17f-5bab15a61045"
            } ]
        }
    }, {
        "fullUrl": "urn:uuid:25b6da5e-dcdb-4176-99c0-9d1d4071682d",
        "resource": {
            "resourceType": "Patient",
            "id": "25b6da5e-dcdb-4176-99c0-9d1d4071682d",
            "meta": {
                "profile": [ "https://fhir.hl7.org.uk/STU3/StructureDefinition/CareConnect-Patient-1" ]
            },
            "identifier": [ {
                "extension": [ {
                    "url": "https://fhir.hl7.org.uk/STU3/StructureDefinition/Extension-CareConnect-NHSNumberVerificationStatus-1",
                    "valueCodeableConcept": {
                        "coding": [ {
                            "system": "https://fhir.hl7.org.uk/STU3/CodeSystem/CareConnect-NHSNumberVerificationStatus-1",
                            "code": "01",
                            "display": "Number present and verified"
                        } ]
                    }
                } ],
                "system": "https://fhir.nhs.uk/Id/nhs-number",
                "value": "9435492908"
            } ],
            "name": [ {
                "use": "official",
                "family": "AZIZ",
                "given": [ "NISMA" ]
            } ],
            "gender": "female",
            "birthDate": "1945-07-30",
            "address": [ {
                "line": [ "FLAT1", "59 SANDTOFT ROAD", "BELTON", "DONCASTER" ],
                "postalCode": "DN9 1PJ"
            } ]
        }
    }, {
        "fullUrl": "urn:uuid:2d20b653-a488-4d74-aa17-03395a05c062",
        "resource": {
            "resourceType": "Practitioner",
            "id": "2d20b653-a488-4d74-aa17-03395a05c062",
            "meta": {
                "profile": [ "https://fhir.hl7.org.uk/STU3/StructureDefinition/CareConnect-Practitioner-1" ]
            },
            "identifier": [ {
                "value": "G3380314"
            } ],
            "name": [ {
                "text": "SCOTT"
            } ]
        }
    }, {
        "fullUrl": "urn:uuid:40002aed-d7f8-4379-8a05-e37c03bff774",
        "resource": {
            "resourceType": "Organization",
            "id": "40002aed-d7f8-4379-8a05-e37c03bff774",
            "meta": {
                "profile": [ "https://fhir.hl7.org.uk/STU3/StructureDefinition/CareConnect-Organization-1" ]
            },
            "name": "NORTH DOWN GP"
        }
    }, {
        "fullUrl": "urn:uuid:014cc38e-a6c2-4cfa-87eb-ba5f3d7025d2",
        "resource": {
            "resourceType": "Practitioner",
            "id": "014cc38e-a6c2-4cfa-87eb-ba5f3d7025d2",
            "meta": {
                "profile": [ "https://fhir.hl7.org.uk/STU3/StructureDefinition/CareConnect-Practitioner-1" ]
            }
        }
    }, {
        "fullUrl": "urn:uuid:004d7ae0-4685-48fb-b234-65d2329db882",
        "resource": {
            "resourceType": "Organization",
            "id": "004d7ae0-4685-48fb-b234-65d2329db882",
            "meta": {
                "profile": [ "https://fhir.hl7.org.uk/STU3/StructureDefinition/CareConnect-Organization-1" ]
            },
            "type": [ {
                "coding": [ {
                    "code": "dept",
                    "display": "Microbiology"
                } ]
            } ],
            "name": "ST JAMES'S UNIVERSITY HOSPITAL"
        }
    }, {
        "fullUrl": "urn:uuid:bfeea4ef-f8d7-42b6-8221-715d9c65b747",
        "resource": {
            "resourceType": "ProcedureRequest",
            "id": "bfeea4ef-f8d7-42b6-8221-715d9c65b747",
            "meta": {
                "profile": [ "https://fhir.hl7.org.uk/STU3/StructureDefinition/CareConnect-ProcedureRequest-1" ]
            },
            "status": "unknown",
            "intent": "order",
            "code": {
                "coding": [ {
                    "system": "http://snomed.info/sct",
                    "code": "15220000",
                    "display": "Laboratory test (procedure)"
                } ]
            },
            "subject": {
                "reference": "urn:uuid:25b6da5e-dcdb-4176-99c0-9d1d4071682d"
            },
            "requester": {
                "agent": {
                    "reference": "urn:uuid:2d20b653-a488-4d74-aa17-03395a05c062"
                },
                "onBehalfOf": {
                    "reference": "urn:uuid:40002aed-d7f8-4379-8a05-e37c03bff774"
                }
            },
            "performer": {
                "reference": "urn:uuid:014cc38e-a6c2-4cfa-87eb-ba5f3d7025d2"
            },
            "note": [ {
                "text": "TIRED ALL THE TIME, LOW Hb"
            }, {
                "text": "COELIAC"
            } ]
        }
    }, {
        "fullUrl": "urn:uuid:d1d607e6-e7e3-45a7-a17f-5bab15a61045",
        "resource": {
            "resourceType": "DiagnosticReport",
            "id": "d1d607e6-e7e3-45a7-a17f-5bab15a61045",
            "meta": {
                "profile": [ "https://fhir.hl7.org.uk/STU3/StructureDefinition/CareConnect-DiagnosticReport-1" ]
            },
            "identifier": [ {
                "system": "https://tools.ietf.org/html/rfc4122",
                "value": "15/CH000037K/200010191704"
            } ],
            "basedOn": [ {
                "reference": "urn:uuid:bfeea4ef-f8d7-42b6-8221-715d9c65b747"
            } ],
            "status": "appended",
            "code": {
                "coding": [ {
                    "system": "http://snomed.info/sct",
                    "code": "721981007",
                    "display": "Diagnostic studies report"
                } ]
            },
            "subject": {
                "reference": "urn:uuid:25b6da5e-dcdb-4176-99c0-9d1d4071682d"
            },
            "issued": "2010-02-25T15:41:00.000+00:00",
            "performer": [ {
                "actor": {
                    "reference": "urn:uuid:004d7ae0-4685-48fb-b234-65d2329db882"
                }
            }, {
                "actor": {
                    "reference": "urn:uuid:014cc38e-a6c2-4cfa-87eb-ba5f3d7025d2"
                }
            } ],
            "specimen": [ {
                "reference": "urn:uuid:fc602aaf-8dff-48bd-9aca-77f490d9aba2"
            } ],
            "result": [ {
                "reference": "urn:uuid:663977e3-1d3c-429a-9110-daf9983da011"
            } ]
        }
    }, {
        "fullUrl": "urn:uuid:fc602aaf-8dff-48bd-9aca-77f490d9aba2",
        "resource": {
            "resourceType": "Specimen",
            "id": "fc602aaf-8dff-48bd-9aca-77f490d9aba2",
            "meta": {
                "profile": [ "https://fhir.hl7.org.uk/STU3/StructureDefinition/CareConnect-Specimen-1" ]
            },
            "accessionIdentifier": {
                "value": "CH000037KA"
            },
            "type": {
                "coding": [ {
                    "system": "http://snomed.info/sct",
                    "display": "VENOUS BLOOD"
                } ]
            },
            "subject": {
                "reference": "urn:uuid:25b6da5e-dcdb-4176-99c0-9d1d4071682d"
            },
            "receivedTime": "2010-02-24T15:41:00+00:00",
            "collection": {
                "collectedDateTime": "2010-02-23T15:41:00+00:00"
            }
        }
    }, {
        "fullUrl": "urn:uuid:663977e3-1d3c-429a-9110-daf9983da011",
        "resource": {
            "resourceType": "Observation",
            "id": "663977e3-1d3c-429a-9110-daf9983da011",
            "meta": {
                "profile": [ "https://fhir.hl7.org.uk/STU3/StructureDefinition/CareConnect-Observation-1" ]
            },
            "status": "unknown",
            "code": {
                "coding": [ {
                    "system": "http://read.info/readv2",
                    "code": "42R4.",
                    "display": "Serum ferritin"
                } ]
            },
            "subject": {
                "reference": "urn:uuid:25b6da5e-dcdb-4176-99c0-9d1d4071682d"
            },
            "performer": [ {
                "reference": "urn:uuid:004d7ae0-4685-48fb-b234-65d2329db882"
            }, {
                "reference": "urn:uuid:014cc38e-a6c2-4cfa-87eb-ba5f3d7025d2"
            } ],
            "valueQuantity": {
                "value": 11,
                "unit": "ng/mL"
            },
            "specimen": {
                "reference": "urn:uuid:fc602aaf-8dff-48bd-9aca-77f490d9aba2"
            },
            "referenceRange": [ {
                "low": {
                    "value": 10
                },
                "high": {
                    "value": 200
                }
            } ]
        }
    } ]
}