{
    "resourceType": "Bundle",
    "id": "06e01943-4682-44c3-9560-5e9df04d01b7",
    "meta": {
        "lastUpdated": "2021-05-28T11:32:03.885+01:00",
        "profile": [
            "https://fhir.nhs.uk/STU3/StructureDefinition/ITK-Message-Bundle-1"
        ]
    },
    "identifier": {
        "system": "https://tools.ietf.org/html/rfc4122",
        "value": "68377564-0c7b-4f52-a68b-b6a2e7d5172e"
    },
    "type": "message",
    "entry": [
        {
            "fullUrl": "urn:uuid:0896bed9-af3f-4032-90b3-42c55105b958",
            "resource": {
                "resourceType": "MessageHeader",
                "id": "0896bed9-af3f-4032-90b3-42c55105b958",
                "meta": {
                    "profile": [
                        "https://fhir.nhs.uk/STU3/StructureDefinition/ITK-MessageHeader-2"
                    ]
                },
                "extension": [
                    {
                        "url": "https://fhir.nhs.uk/STU3/StructureDefinition/Extension-ITK-MessageHandling-2",
                        "extension": [
                            {
                                "url": "BusAckRequested",
                                "valueBoolean": true
                            },
                            {
                                "url": "InfAckRequested",
                                "valueBoolean": true
                            },
                            {
                                "url": "RecipientType",
                                "valueCoding": {
                                    "system": "https://fhir.nhs.uk/STU3/CodeSystem/ITK-RecipientType-1",
                                    "code": "FA",
                                    "display": "For Action"
                                }
                            },
                            {
                                "url": "SenderReference",
                                "valueString": "None"
                            },
                            {
                                "url": "LocalExtension",
                                "valueString": "None"
                            }
                        ]
                    }
                ],
                "event": {
                    "system": "https://fhir.nhs.uk/STU3/CodeSystem/ITK-MessageEvent-2",
                    "code": "ITK012M",
                    "display": "ITK National Pathology"
                },
                "receiver": {
                    "reference": "urn:uuid:f6e28159-4b5b-4d9c-b478-a7f3cc32bd9f"
                },
                "sender": {
                    "reference": "urn:uuid:33eca894-c329-4bd1-8e3b-8c7634379634"
                },
                "timestamp": "2010-03-01T17:51:00.000+00:00",
                "source": {
                    "endpoint": "lab_results_mailbox"
                },
                "responsible": {
                    "reference": "urn:uuid:33eca894-c329-4bd1-8e3b-8c7634379634"
                },
                "focus": [
                    {
                        "reference": "urn:uuid:4a0fa0dc-18cb-4279-867d-2ffe248380d6"
                    }
                ]
            }
        },
        {
            "fullUrl": "urn:uuid:236d2843-c59e-464a-99e2-bc18e35dc4c7",
            "resource": {
                "resourceType": "Patient",
                "id": "236d2843-c59e-464a-99e2-bc18e35dc4c7",
                "meta": {
                    "profile": [
                        "https://fhir.hl7.org.uk/STU3/StructureDefinition/CareConnect-Patient-1"
                    ]
                },
                "identifier": [
                    {
                        "extension": [
                            {
                                "url": "https://fhir.hl7.org.uk/STU3/StructureDefinition/Extension-CareConnect-NHSNumberVerificationStatus-1",
                                "valueCodeableConcept": {
                                    "coding": [
                                        {
                                            "system": "https://fhir.hl7.org.uk/STU3/CodeSystem/CareConnect-NHSNumberVerificationStatus-1",
                                            "code": "01",
                                            "display": "Number present and verified"
                                        }
                                    ]
                                }
                            }
                        ],
                        "system": "https://fhir.nhs.uk/Id/nhs-number",
                        "value": "9435505600"
                    }
                ],
                "name": [
                    {
                        "use": "official",
                        "family": "HENDERSON"
                    }
                ],
                "gender": "female",
                "address": [
                    {
                        "line": [
                            "4-5",
                            "WESLEY PLACE",
                            "SOWERBY BRIDGE"
                        ],
                        "postalCode": "HX6 1JQ"
                    }
                ]
            }
        },
        {
            "fullUrl": "urn:uuid:bcb454e4-97d7-4516-8da8-24f196979f38",
            "resource": {
                "resourceType": "Practitioner",
                "id": "bcb454e4-97d7-4516-8da8-24f196979f38",
                "meta": {
                    "profile": [
                        "https://fhir.hl7.org.uk/STU3/StructureDefinition/CareConnect-Practitioner-1"
                    ]
                },
                "identifier": [
                    {
                        "system": "https://fhir.nhs.uk/Id/sds-user-id",
                        "value": "G3380314"
                    }
                ],
                "name": [
                    {
                        "text": "SCOTT"
                    }
                ]
            }
        },
        {
            "fullUrl": "urn:uuid:f6e28159-4b5b-4d9c-b478-a7f3cc32bd9f",
            "resource": {
                "resourceType": "Organization",
                "id": "f6e28159-4b5b-4d9c-b478-a7f3cc32bd9f",
                "meta": {
                    "profile": [
                        "https://fhir.hl7.org.uk/STU3/StructureDefinition/CareConnect-Organization-1"
                    ]
                },
                "name": "NORTH DOWN GP"
            }
        },
        {
            "fullUrl": "urn:uuid:89fd1dcc-6d7b-4520-a45a-e2f4b2dc28d9",
            "resource": {
                "resourceType": "Practitioner",
                "id": "89fd1dcc-6d7b-4520-a45a-e2f4b2dc28d9",
                "meta": {
                    "profile": [
                        "https://fhir.hl7.org.uk/STU3/StructureDefinition/CareConnect-Practitioner-1"
                    ]
                }
            }
        },
        {
            "fullUrl": "urn:uuid:33eca894-c329-4bd1-8e3b-8c7634379634",
            "resource": {
                "resourceType": "Organization",
                "id": "33eca894-c329-4bd1-8e3b-8c7634379634",
                "meta": {
                    "profile": [
                        "https://fhir.hl7.org.uk/STU3/StructureDefinition/CareConnect-Organization-1"
                    ]
                },
                "type": [
                    {
                        "coding": [
                            {
                                "code": "dept",
                                "display": "Microbiology"
                            }
                        ]
                    }
                ],
                "name": "ST JAMES'S UNIVERSITY HOSPITAL"
            }
        },
        {
            "fullUrl": "urn:uuid:ea161965-efa7-40a2-a465-8ee3f61ae0f4",
            "resource": {
                "resourceType": "ProcedureRequest",
                "id": "ea161965-efa7-40a2-a465-8ee3f61ae0f4",
                "meta": {
                    "profile": [
                        "https://fhir.hl7.org.uk/STU3/StructureDefinition/CareConnect-ProcedureRequest-1"
                    ]
                },
                "status": "unknown",
                "intent": "order",
                "code": {
                    "coding": [
                        {
                            "system": "http://snomed.info/sct",
                            "code": "15220000",
                            "display": "Laboratory test (procedure)"
                        }
                    ]
                },
                "subject": {
                    "reference": "urn:uuid:236d2843-c59e-464a-99e2-bc18e35dc4c7"
                },
                "requester": {
                    "agent": {
                        "reference": "urn:uuid:bcb454e4-97d7-4516-8da8-24f196979f38"
                    },
                    "onBehalfOf": {
                        "reference": "urn:uuid:f6e28159-4b5b-4d9c-b478-a7f3cc32bd9f"
                    }
                },
                "performer": {
                    "reference": "urn:uuid:89fd1dcc-6d7b-4520-a45a-e2f4b2dc28d9"
                },
                "note": [
                    {
                        "text": "PAINS HANDS AND FEET."
                    }
                ]
            }
        },
        {
            "fullUrl": "urn:uuid:4a0fa0dc-18cb-4279-867d-2ffe248380d6",
            "resource": {
                "resourceType": "DiagnosticReport",
                "id": "4a0fa0dc-18cb-4279-867d-2ffe248380d6",
                "meta": {
                    "profile": [
                        "https://fhir.hl7.org.uk/STU3/StructureDefinition/CareConnect-DiagnosticReport-1"
                    ]
                },
                "identifier": [
                    {
                        "system": "https://tools.ietf.org/html/rfc4122",
                        "value": "15/CH000038L/200010191704"
                    }
                ],
                "basedOn": [
                    {
                        "reference": "urn:uuid:ea161965-efa7-40a2-a465-8ee3f61ae0f4"
                    }
                ],
                "status": "preliminary",
                "code": {
                    "coding": [
                        {
                            "system": "http://snomed.info/sct",
                            "code": "721981007",
                            "display": "Diagnostic studies report"
                        }
                    ]
                },
                "subject": {
                    "reference": "urn:uuid:236d2843-c59e-464a-99e2-bc18e35dc4c7"
                },
                "issued": "2010-02-25T15:41:00.000+00:00",
                "performer": [
                    {
                        "actor": {
                            "reference": "urn:uuid:33eca894-c329-4bd1-8e3b-8c7634379634"
                        }
                    },
                    {
                        "actor": {
                            "reference": "urn:uuid:89fd1dcc-6d7b-4520-a45a-e2f4b2dc28d9"
                        }
                    }
                ],
                "specimen": [
                    {
                        "reference": "urn:uuid:4fcb4efb-1804-4e56-a99e-702406697a4f"
                    }
                ],
                "result": [
                    {
                        "reference": "urn:uuid:3e1aae84-f399-4e21-9380-020311b0737f"
                    }
                ]
            }
        },
        {
            "fullUrl": "urn:uuid:4fcb4efb-1804-4e56-a99e-702406697a4f",
            "resource": {
                "resourceType": "Specimen",
                "id": "4fcb4efb-1804-4e56-a99e-702406697a4f",
                "meta": {
                    "profile": [
                        "https://fhir.hl7.org.uk/STU3/StructureDefinition/CareConnect-Specimen-1"
                    ]
                },
                "type": {
                    "coding": [
                        {
                            "system": "http://snomed.info/sct",
                            "display": "VENOUS BLOOD"
                        }
                    ]
                },
                "subject": {
                    "reference": "urn:uuid:236d2843-c59e-464a-99e2-bc18e35dc4c7"
                },
                "receivedTime": "2010-02-24T15:41:00+00:00"
            }
        },
        {
            "fullUrl": "urn:uuid:3e1aae84-f399-4e21-9380-020311b0737f",
            "resource": {
                "resourceType": "Observation",
                "id": "3e1aae84-f399-4e21-9380-020311b0737f",
                "meta": {
                    "profile": [
                        "https://fhir.hl7.org.uk/STU3/StructureDefinition/CareConnect-Observation-1"
                    ]
                },
                "status": "unknown",
                "code": {
                    "coding": [
                        {
                            "system": "http://read.info/readv2",
                            "code": "43F3.",
                            "display": "R.A. latex test"
                        }
                    ]
                },
                "subject": {
                    "reference": "urn:uuid:236d2843-c59e-464a-99e2-bc18e35dc4c7"
                },
                "performer": [
                    {
                        "reference": "urn:uuid:33eca894-c329-4bd1-8e3b-8c7634379634"
                    },
                    {
                        "reference": "urn:uuid:89fd1dcc-6d7b-4520-a45a-e2f4b2dc28d9"
                    }
                ],
                "comment": "NEGATIVE",
                "specimen": {
                    "reference": "urn:uuid:4fcb4efb-1804-4e56-a99e-702406697a4f"
                }
            }
        }
    ]
}