{
    "resourceType": "Bundle",
    "id": "4ac5bca3-2fac-4816-9b2f-b53f341233a1",
    "meta": {
        "lastUpdated": "2021-04-27T13:07:24.721+01:00",
        "profile": [ "https://fhir.nhs.uk/STU3/StructureDefinition/ITK-Message-Bundle-1" ]
    },
    "identifier": {
        "system": "https://tools.ietf.org/html/rfc4122",
        "value": "ff47bd1c-f735-4b54-9be3-82354f1dd167"
    },
    "type": "message",
    "entry": [ {
        "fullUrl": "urn:uuid:5d20a27b-84af-4530-9bd3-7978327b1a5e",
        "resource": {
            "resourceType": "MessageHeader",
            "id": "5d20a27b-84af-4530-9bd3-7978327b1a5e",
            "meta": {
                "profile": [ "https://fhir.nhs.uk/STU3/StructureDefinition/ITK-MessageHeader-2" ]
            },
            "extension": [ {
                "url": "https://fhir.nhs.uk/STU3/StructureDefinition/Extension-ITK-MessageHandling-2",
                "extension": [ {
                    "url": "BusAckRequested",
                    "valueBoolean": true
                }, {
                    "url": "InfAckRequested",
                    "valueBoolean": true
                }, {
                    "url": "RecipientType",
                    "valueCoding": {
                        "system": "https://fhir.nhs.uk/STU3/CodeSystem/ITK-RecipientType-1",
                        "code": "FA",
                        "display": "For Action"
                    }
                }, {
                    "url": "SenderReference",
                    "valueString": "None"
                }, {
                    "url": "LocalExtension",
                    "valueString": "None"
                } ]
            } ],
            "event": {
                "system": "https://fhir.nhs.uk/STU3/CodeSystem/ITK-MessageEvent-2",
                "code": "ITK012M",
                "display": "ITK National Pathology"
            },
            "receiver": {
                "reference": "urn:uuid:9674d71a-cc70-4ec7-aad1-e73c30815781"
            },
            "sender": {
                "reference": "urn:uuid:31af3bcc-40ed-4eaf-ac76-d3205a4c6db9"
            },
            "timestamp": "2010-03-01T17:51:00.000+00:00",
            "source": {
                "endpoint": "lab_results_mailbox"
            },
            "responsible": {
                "reference": "urn:uuid:31af3bcc-40ed-4eaf-ac76-d3205a4c6db9"
            },
            "focus": [ {
                "reference": "urn:uuid:742a0f60-63c4-4c62-b3d2-394fea98b55d"
            } ]
        }
    }, {
        "fullUrl": "urn:uuid:29cbe24d-4dff-40f1-adfd-2d7f1749be65",
        "resource": {
            "resourceType": "Patient",
            "id": "29cbe24d-4dff-40f1-adfd-2d7f1749be65",
            "meta": {
                "profile": [ "https://fhir.hl7.org.uk/STU3/StructureDefinition/CareConnect-Patient-1" ]
            },
            "identifier": [ {
                "extension": [ {
                    "url": "https://fhir.hl7.org.uk/STU3/StructureDefinition/Extension-CareConnect-NHSNumberVerificationStatus-1",
                    "valueCodeableConcept": {
                        "coding": [ {
                            "system": "https://fhir.hl7.org.uk/STU3/CodeSystem/CareConnect-NHSNumberVerificationStatus-1",
                            "code": "01",
                            "display": "Number present and verified"
                        } ]
                    }
                } ],
                "system": "https://fhir.nhs.uk/Id/nhs-number",
                "value": "9435505600"
            } ],
            "name": [ {
                "use": "official",
                "family": "HENDERSON"
            } ],
            "gender": "female",
            "address": [ {
                "line": [ "4-5", "WESLEY PLACE", "SOWERBY BRIDGE" ],
                "postalCode": "HX6 1JQ"
            } ]
        }
    }, {
        "fullUrl": "urn:uuid:6731965d-951e-43ec-aa8d-243c0fe3c2c8",
        "resource": {
            "resourceType": "Practitioner",
            "id": "6731965d-951e-43ec-aa8d-243c0fe3c2c8",
            "meta": {
                "profile": [ "https://fhir.hl7.org.uk/STU3/StructureDefinition/CareConnect-Practitioner-1" ]
            },
            "identifier": [ {
                "system": "https://fhir.nhs.uk/Id/sds-user-id",
                "value": "G3380314"
            } ],
            "name": [ {
                "text": "SCOTT"
            } ]
        }
    }, {
        "fullUrl": "urn:uuid:9674d71a-cc70-4ec7-aad1-e73c30815781",
        "resource": {
            "resourceType": "Organization",
            "id": "9674d71a-cc70-4ec7-aad1-e73c30815781",
            "meta": {
                "profile": [ "https://fhir.hl7.org.uk/STU3/StructureDefinition/CareConnect-Organization-1" ]
            },
            "name": "NORTH DOWN GP"
        }
    }, {
        "fullUrl": "urn:uuid:6dc28160-ffe0-4201-9f02-6feceb9fdb8a",
        "resource": {
            "resourceType": "Practitioner",
            "id": "6dc28160-ffe0-4201-9f02-6feceb9fdb8a",
            "meta": {
                "profile": [ "https://fhir.hl7.org.uk/STU3/StructureDefinition/CareConnect-Practitioner-1" ]
            }
        }
    }, {
        "fullUrl": "urn:uuid:31af3bcc-40ed-4eaf-ac76-d3205a4c6db9",
        "resource": {
            "resourceType": "Organization",
            "id": "31af3bcc-40ed-4eaf-ac76-d3205a4c6db9",
            "meta": {
                "profile": [ "https://fhir.hl7.org.uk/STU3/StructureDefinition/CareConnect-Organization-1" ]
            },
            "type": [ {
                "coding": [ {
                    "code": "dept",
                    "display": "Microbiology"
                } ]
            } ],
            "name": "ST JAMES'S UNIVERSITY HOSPITAL"
        }
    }, {
        "fullUrl": "urn:uuid:64bd754d-2983-4de1-8131-730b15b3a230",
        "resource": {
            "resourceType": "ProcedureRequest",
            "id": "64bd754d-2983-4de1-8131-730b15b3a230",
            "meta": {
                "profile": [ "https://fhir.hl7.org.uk/STU3/StructureDefinition/CareConnect-ProcedureRequest-1" ]
            },
            "status": "unknown",
            "intent": "order",
            "code": {
                "text": "unknown"
            },
            "subject": {
                "reference": "urn:uuid:29cbe24d-4dff-40f1-adfd-2d7f1749be65"
            },
            "requester": {
                "agent": {
                    "reference": "urn:uuid:6731965d-951e-43ec-aa8d-243c0fe3c2c8"
                },
                "onBehalfOf": {
                    "reference": "urn:uuid:9674d71a-cc70-4ec7-aad1-e73c30815781"
                }
            },
            "performer": {
                "reference": "urn:uuid:6dc28160-ffe0-4201-9f02-6feceb9fdb8a"
            },
            "note": [ {
                "text": "PAINS HANDS AND FEET."
            } ]
        }
    }, {
        "fullUrl": "urn:uuid:742a0f60-63c4-4c62-b3d2-394fea98b55d",
        "resource": {
            "resourceType": "DiagnosticReport",
            "id": "742a0f60-63c4-4c62-b3d2-394fea98b55d",
            "meta": {
                "profile": [ "https://fhir.hl7.org.uk/STU3/StructureDefinition/CareConnect-DiagnosticReport-1" ]
            },
            "identifier": [ {
                "system": "https://tools.ietf.org/html/rfc4122",
                "value": "15/CH000038L/200010191704"
            } ],
            "basedOn": [ {
                "reference": "urn:uuid:64bd754d-2983-4de1-8131-730b15b3a230"
            } ],
            "status": "unknown",
            "code": {
                "coding": [ {
                    "system": "http://snomed.info/sct",
                    "code": "721981007",
                    "display": "Diagnostic studies report"
                } ]
            },
            "subject": {
                "reference": "urn:uuid:29cbe24d-4dff-40f1-adfd-2d7f1749be65"
            },
            "issued": "2010-02-25T15:41:00.000+00:00",
            "performer": [ {
                "actor": {
                    "reference": "urn:uuid:31af3bcc-40ed-4eaf-ac76-d3205a4c6db9"
                }
            }, {
                "actor": {
                    "reference": "urn:uuid:6dc28160-ffe0-4201-9f02-6feceb9fdb8a"
                }
            } ],
            "specimen": [ {
                "reference": "urn:uuid:905297fc-d4a1-46a3-99d7-66e6a358a566"
            } ],
            "result": [ {
                "reference": "urn:uuid:880fb505-bfda-4913-a50b-656f50d8484b"
            } ]
        }
    }, {
        "fullUrl": "urn:uuid:905297fc-d4a1-46a3-99d7-66e6a358a566",
        "resource": {
            "resourceType": "Specimen",
            "id": "905297fc-d4a1-46a3-99d7-66e6a358a566",
            "meta": {
                "profile": [ "https://fhir.hl7.org.uk/STU3/StructureDefinition/CareConnect-Specimen-1" ]
            },
            "type": {
                "coding": [ {
                    "system": "http://snomed.info/sct",
                    "display": "VENOUS BLOOD"
                } ]
            },
            "subject": {
                "reference": "urn:uuid:29cbe24d-4dff-40f1-adfd-2d7f1749be65"
            },
            "receivedTime": "2010-02-24T15:41:00+00:00"
        }
    }, {
        "fullUrl": "urn:uuid:880fb505-bfda-4913-a50b-656f50d8484b",
        "resource": {
            "resourceType": "Observation",
            "id": "880fb505-bfda-4913-a50b-656f50d8484b",
            "meta": {
                "profile": [ "https://fhir.hl7.org.uk/STU3/StructureDefinition/CareConnect-Observation-1" ]
            },
            "status": "unknown",
            "code": {
                "coding": [ {
                    "system": "http://read.info/readv2",
                    "code": "43F3.",
                    "display": "R.A. latex test"
                } ]
            },
            "subject": {
                "reference": "urn:uuid:29cbe24d-4dff-40f1-adfd-2d7f1749be65"
            },
            "performer": [ {
                "reference": "urn:uuid:31af3bcc-40ed-4eaf-ac76-d3205a4c6db9"
            }, {
                "reference": "urn:uuid:6dc28160-ffe0-4201-9f02-6feceb9fdb8a"
            } ],
            "comment": "NEGATIVE",
            "specimen": {
                "reference": "urn:uuid:905297fc-d4a1-46a3-99d7-66e6a358a566"
            }
        }
    } ]
}