{
    "resourceType": "Bundle",
    "id": "e87dbdad-c515-4714-87cb-5c5664044273",
    "meta": {
        "lastUpdated": "2021-05-28T11:32:03.887+01:00",
        "profile": [
            "https://fhir.nhs.uk/STU3/StructureDefinition/ITK-Message-Bundle-1"
        ]
    },
    "identifier": {
        "system": "https://tools.ietf.org/html/rfc4122",
        "value": "4f1d8959-7559-460c-82c2-874ab9bc1247"
    },
    "type": "message",
    "entry": [
        {
            "fullUrl": "urn:uuid:cafb5b6c-4960-4dc8-bcaf-dc425292cbfd",
            "resource": {
                "resourceType": "MessageHeader",
                "id": "cafb5b6c-4960-4dc8-bcaf-dc425292cbfd",
                "meta": {
                    "profile": [
                        "https://fhir.nhs.uk/STU3/StructureDefinition/ITK-MessageHeader-2"
                    ]
                },
                "extension": [
                    {
                        "url": "https://fhir.nhs.uk/STU3/StructureDefinition/Extension-ITK-MessageHandling-2",
                        "extension": [
                            {
                                "url": "BusAckRequested",
                                "valueBoolean": true
                            },
                            {
                                "url": "InfAckRequested",
                                "valueBoolean": true
                            },
                            {
                                "url": "RecipientType",
                                "valueCoding": {
                                    "system": "https://fhir.nhs.uk/STU3/CodeSystem/ITK-RecipientType-1",
                                    "code": "FA",
                                    "display": "For Action"
                                }
                            },
                            {
                                "url": "SenderReference",
                                "valueString": "None"
                            },
                            {
                                "url": "LocalExtension",
                                "valueString": "None"
                            }
                        ]
                    }
                ],
                "event": {
                    "system": "https://fhir.nhs.uk/STU3/CodeSystem/ITK-MessageEvent-2",
                    "code": "ITK012M",
                    "display": "ITK National Pathology"
                },
                "receiver": {
                    "reference": "urn:uuid:3ba416b8-c867-468d-9f18-0a681e284758"
                },
                "sender": {
                    "reference": "urn:uuid:92733b2e-8cc6-4d00-9c6d-1ca369b7eaed"
                },
                "timestamp": "2010-03-01T17:51:00.000+00:00",
                "source": {
                    "endpoint": "lab_results_mailbox"
                },
                "responsible": {
                    "reference": "urn:uuid:92733b2e-8cc6-4d00-9c6d-1ca369b7eaed"
                },
                "focus": [
                    {
                        "reference": "urn:uuid:010b27a0-9ca9-4bcc-8b9d-149307ec868f"
                    }
                ]
            }
        },
        {
            "fullUrl": "urn:uuid:b580a68c-988d-4542-9b4b-13f04f038f96",
            "resource": {
                "resourceType": "Patient",
                "id": "b580a68c-988d-4542-9b4b-13f04f038f96",
                "meta": {
                    "profile": [
                        "https://fhir.hl7.org.uk/STU3/StructureDefinition/CareConnect-Patient-1"
                    ]
                },
                "identifier": [
                    {
                        "extension": [
                            {
                                "url": "https://fhir.hl7.org.uk/STU3/StructureDefinition/Extension-CareConnect-NHSNumberVerificationStatus-1",
                                "valueCodeableConcept": {
                                    "coding": [
                                        {
                                            "system": "https://fhir.hl7.org.uk/STU3/CodeSystem/CareConnect-NHSNumberVerificationStatus-1",
                                            "code": "01",
                                            "display": "Number present and verified"
                                        }
                                    ]
                                }
                            }
                        ],
                        "system": "https://fhir.nhs.uk/Id/nhs-number",
                        "value": "9435518443"
                    }
                ],
                "name": [
                    {
                        "use": "official",
                        "family": "TSUEI",
                        "given": [
                            "MINGYU"
                        ]
                    }
                ],
                "gender": "female",
                "birthDate": "1967-05-31"
            }
        },
        {
            "fullUrl": "urn:uuid:485ad6fb-d03f-4f55-bf8d-38b14d7f855f",
            "resource": {
                "resourceType": "Practitioner",
                "id": "485ad6fb-d03f-4f55-bf8d-38b14d7f855f",
                "meta": {
                    "profile": [
                        "https://fhir.hl7.org.uk/STU3/StructureDefinition/CareConnect-Practitioner-1"
                    ]
                },
                "name": [
                    {
                        "text": "SCOTT"
                    }
                ]
            }
        },
        {
            "fullUrl": "urn:uuid:3ba416b8-c867-468d-9f18-0a681e284758",
            "resource": {
                "resourceType": "Organization",
                "id": "3ba416b8-c867-468d-9f18-0a681e284758",
                "meta": {
                    "profile": [
                        "https://fhir.hl7.org.uk/STU3/StructureDefinition/CareConnect-Organization-1"
                    ]
                },
                "name": "NORTH DOWN GP"
            }
        },
        {
            "fullUrl": "urn:uuid:7d3f57b7-5c14-45e1-a528-b602881160cc",
            "resource": {
                "resourceType": "Practitioner",
                "id": "7d3f57b7-5c14-45e1-a528-b602881160cc",
                "meta": {
                    "profile": [
                        "https://fhir.hl7.org.uk/STU3/StructureDefinition/CareConnect-Practitioner-1"
                    ]
                },
                "identifier": [
                    {
                        "system": "https://fhir.nhs.uk/Id/sds-user-id",
                        "value": "C1357930"
                    }
                ],
                "name": [
                    {
                        "text": "DR C CURLEY"
                    }
                ]
            }
        },
        {
            "fullUrl": "urn:uuid:92733b2e-8cc6-4d00-9c6d-1ca369b7eaed",
            "resource": {
                "resourceType": "Organization",
                "id": "92733b2e-8cc6-4d00-9c6d-1ca369b7eaed",
                "meta": {
                    "profile": [
                        "https://fhir.hl7.org.uk/STU3/StructureDefinition/CareConnect-Organization-1"
                    ]
                },
                "type": [
                    {
                        "coding": [
                            {
                                "code": "dept",
                                "display": "Microbiology"
                            }
                        ]
                    }
                ],
                "name": "ST JAMES'S UNIVERSITY HOSPITAL"
            }
        },
        {
            "fullUrl": "urn:uuid:173b9b52-ebd8-4b1d-a4d8-423e8f39bc39",
            "resource": {
                "resourceType": "ProcedureRequest",
                "id": "173b9b52-ebd8-4b1d-a4d8-423e8f39bc39",
                "meta": {
                    "profile": [
                        "https://fhir.hl7.org.uk/STU3/StructureDefinition/CareConnect-ProcedureRequest-1"
                    ]
                },
                "status": "active",
                "intent": "order",
                "code": {
                    "coding": [
                        {
                            "system": "http://snomed.info/sct",
                            "code": "15220000",
                            "display": "Laboratory test (procedure)"
                        }
                    ]
                },
                "subject": {
                    "reference": "urn:uuid:b580a68c-988d-4542-9b4b-13f04f038f96"
                },
                "requester": {
                    "agent": {
                        "reference": "urn:uuid:485ad6fb-d03f-4f55-bf8d-38b14d7f855f"
                    },
                    "onBehalfOf": {
                        "reference": "urn:uuid:3ba416b8-c867-468d-9f18-0a681e284758"
                    }
                },
                "performer": {
                    "reference": "urn:uuid:7d3f57b7-5c14-45e1-a528-b602881160cc"
                }
            }
        },
        {
            "fullUrl": "urn:uuid:010b27a0-9ca9-4bcc-8b9d-149307ec868f",
            "resource": {
                "resourceType": "DiagnosticReport",
                "id": "010b27a0-9ca9-4bcc-8b9d-149307ec868f",
                "meta": {
                    "profile": [
                        "https://fhir.hl7.org.uk/STU3/StructureDefinition/CareConnect-DiagnosticReport-1"
                    ]
                },
                "identifier": [
                    {
                        "system": "https://tools.ietf.org/html/rfc4122",
                        "value": "15/CH000063K/200010191704"
                    }
                ],
                "basedOn": [
                    {
                        "reference": "urn:uuid:173b9b52-ebd8-4b1d-a4d8-423e8f39bc39"
                    }
                ],
                "status": "unknown",
                "code": {
                    "coding": [
                        {
                            "system": "http://snomed.info/sct",
                            "code": "721981007",
                            "display": "Diagnostic studies report"
                        }
                    ]
                },
                "subject": {
                    "reference": "urn:uuid:b580a68c-988d-4542-9b4b-13f04f038f96"
                },
                "issued": "2010-02-25T15:41:00.000+00:00",
                "performer": [
                    {
                        "actor": {
                            "reference": "urn:uuid:92733b2e-8cc6-4d00-9c6d-1ca369b7eaed"
                        }
                    },
                    {
                        "actor": {
                            "reference": "urn:uuid:7d3f57b7-5c14-45e1-a528-b602881160cc"
                        }
                    }
                ]
            }
        }
    ]
}