{
    "resourceType": "Bundle",
    "id": "5b85289b-cb91-4de0-808a-fa8e5bfed62d",
    "meta": {
        "lastUpdated": "2021-04-27T13:18:36.154+01:00",
<<<<<<< HEAD
        "profile": [ "https://fhir.nhs.uk/STU3/StructureDefinition/ITK-Message-Bundle-1" ]
=======
        "profile": [
            "https://fhir.nhs.uk/STU3/StructureDefinition/ITK-Message-Bundle-1"
        ]
>>>>>>> main
    },
    "identifier": {
        "system": "https://tools.ietf.org/html/rfc4122",
        "value": "12bb3846-3482-49b0-8a72-2eb95e26b125"
    },
    "type": "message",
<<<<<<< HEAD
    "entry": [ {
        "fullUrl": "urn:uuid:8ee3946d-2db6-4eaa-ad24-b861366b6894",
        "resource": {
            "resourceType": "MessageHeader",
            "id": "8ee3946d-2db6-4eaa-ad24-b861366b6894",
            "meta": {
                "profile": [ "https://fhir.nhs.uk/STU3/StructureDefinition/ITK-MessageHeader-2" ]
            },
            "extension": [ {
                "url": "https://fhir.nhs.uk/STU3/StructureDefinition/Extension-ITK-MessageHandling-2",
                "extension": [ {
                    "url": "BusAckRequested",
                    "valueBoolean": true
                }, {
                    "url": "InfAckRequested",
                    "valueBoolean": true
                }, {
                    "url": "RecipientType",
                    "valueCoding": {
                        "system": "https://fhir.nhs.uk/STU3/CodeSystem/ITK-RecipientType-1",
                        "code": "FA",
                        "display": "For Action"
                    }
                }, {
                    "url": "SenderReference",
                    "valueString": "None"
                }, {
                    "url": "LocalExtension",
                    "valueString": "None"
                } ]
            } ],
            "event": {
                "system": "https://fhir.nhs.uk/STU3/CodeSystem/ITK-MessageEvent-2",
                "code": "ITK012M",
                "display": "ITK National Pathology"
            },
            "receiver": {
                "reference": "urn:uuid:5b7457db-5d5c-42ea-be2d-a5f956df3157"
            },
            "sender": {
                "reference": "urn:uuid:c62809f4-7349-4980-89af-536f3ef392b8"
            },
            "timestamp": "2010-03-01T17:51:00.000+00:00",
            "source": {
                "endpoint": "lab_results_mailbox"
            },
            "responsible": {
                "reference": "urn:uuid:c62809f4-7349-4980-89af-536f3ef392b8"
            },
            "focus": [ {
                "reference": "urn:uuid:93521152-5970-4051-94e7-78c636f87a1f"
            } ]
        }
    }, {
        "fullUrl": "urn:uuid:64c190f1-68fa-45d8-bbc9-cbed99dc78f0",
        "resource": {
            "resourceType": "Patient",
            "id": "64c190f1-68fa-45d8-bbc9-cbed99dc78f0",
            "meta": {
                "profile": [ "https://fhir.hl7.org.uk/STU3/StructureDefinition/CareConnect-Patient-1" ]
            },
            "identifier": [ {
                "extension": [ {
                    "url": "https://fhir.hl7.org.uk/STU3/StructureDefinition/Extension-CareConnect-NHSNumberVerificationStatus-1",
                    "valueCodeableConcept": {
                        "coding": [ {
                            "system": "https://fhir.hl7.org.uk/STU3/CodeSystem/CareConnect-NHSNumberVerificationStatus-1",
                            "code": "01",
                            "display": "Number present and verified"
                        } ]
                    }
                } ],
                "system": "https://fhir.nhs.uk/Id/nhs-number",
                "value": "9435492908"
            } ],
            "name": [ {
                "use": "official",
                "family": "AZIZ",
                "given": [ "NISMA" ]
            } ],
            "gender": "female",
            "birthDate": "1945-07-30",
            "address": [ {
                "line": [ "FLAT1", "59 SANDTOFT ROAD", "DONCASTER" ],
                "postalCode": "DN9 1PJ"
            } ]
        }
    }, {
        "fullUrl": "urn:uuid:d77413ec-ed94-42a1-963e-90f169ceb707",
        "resource": {
            "resourceType": "Practitioner",
            "id": "d77413ec-ed94-42a1-963e-90f169ceb707",
            "meta": {
                "profile": [ "https://fhir.hl7.org.uk/STU3/StructureDefinition/CareConnect-Practitioner-1" ]
            },
            "identifier": [ {
                "system": "https://fhir.nhs.uk/Id/sds-user-id",
                "value": "G3380314"
            } ],
            "name": [ {
                "text": "SCOTT"
            } ]
        }
    }, {
        "fullUrl": "urn:uuid:5b7457db-5d5c-42ea-be2d-a5f956df3157",
        "resource": {
            "resourceType": "Organization",
            "id": "5b7457db-5d5c-42ea-be2d-a5f956df3157",
            "meta": {
                "profile": [ "https://fhir.hl7.org.uk/STU3/StructureDefinition/CareConnect-Organization-1" ]
            },
            "name": "NORTH DOWN GP"
        }
    }, {
        "fullUrl": "urn:uuid:283536f8-a2c5-4a16-8aeb-b5077690db2c",
        "resource": {
            "resourceType": "Practitioner",
            "id": "283536f8-a2c5-4a16-8aeb-b5077690db2c",
            "meta": {
                "profile": [ "https://fhir.hl7.org.uk/STU3/StructureDefinition/CareConnect-Practitioner-1" ]
            }
        }
    }, {
        "fullUrl": "urn:uuid:c62809f4-7349-4980-89af-536f3ef392b8",
        "resource": {
            "resourceType": "Organization",
            "id": "c62809f4-7349-4980-89af-536f3ef392b8",
            "meta": {
                "profile": [ "https://fhir.hl7.org.uk/STU3/StructureDefinition/CareConnect-Organization-1" ]
            },
            "type": [ {
                "coding": [ {
                    "code": "dept",
                    "display": "Haematology"
                } ]
            } ],
            "name": "ST JAMES'S UNIVERSITY HOSPITAL"
        }
    }, {
        "fullUrl": "urn:uuid:ba202662-5e74-4a6e-977c-6270af9f210c",
        "resource": {
            "resourceType": "ProcedureRequest",
            "id": "ba202662-5e74-4a6e-977c-6270af9f210c",
            "meta": {
                "profile": [ "https://fhir.hl7.org.uk/STU3/StructureDefinition/CareConnect-ProcedureRequest-1" ]
            },
            "status": "unknown",
            "intent": "order",
            "code": {
                "text": "unknown"
            },
            "subject": {
                "reference": "urn:uuid:64c190f1-68fa-45d8-bbc9-cbed99dc78f0"
            },
            "requester": {
                "agent": {
                    "reference": "urn:uuid:d77413ec-ed94-42a1-963e-90f169ceb707"
                },
                "onBehalfOf": {
                    "reference": "urn:uuid:5b7457db-5d5c-42ea-be2d-a5f956df3157"
                }
            },
            "performer": {
                "reference": "urn:uuid:283536f8-a2c5-4a16-8aeb-b5077690db2c"
            },
            "note": [ {
                "text": "TIRED ALL THE TIME, LOW Hb"
            }, {
                "text": "COELIAC"
            } ]
        }
    }, {
        "fullUrl": "urn:uuid:93521152-5970-4051-94e7-78c636f87a1f",
        "resource": {
            "resourceType": "DiagnosticReport",
            "id": "93521152-5970-4051-94e7-78c636f87a1f",
            "meta": {
                "profile": [ "https://fhir.hl7.org.uk/STU3/StructureDefinition/CareConnect-DiagnosticReport-1" ]
            },
            "identifier": [ {
                "system": "https://tools.ietf.org/html/rfc4122",
                "value": "15/CH000037K/200010191704"
            } ],
            "basedOn": [ {
                "reference": "urn:uuid:ba202662-5e74-4a6e-977c-6270af9f210c"
            } ],
            "status": "unknown",
            "code": {
                "coding": [ {
                    "system": "http://snomed.info/sct",
                    "code": "721981007",
                    "display": "Diagnostic studies report"
                } ]
            },
            "subject": {
                "reference": "urn:uuid:64c190f1-68fa-45d8-bbc9-cbed99dc78f0"
            },
            "issued": "2010-02-25T15:41:00.000+00:00",
            "performer": [ {
                "actor": {
                    "reference": "urn:uuid:c62809f4-7349-4980-89af-536f3ef392b8"
=======
    "entry": [
        {
            "fullUrl": "urn:uuid:8ee3946d-2db6-4eaa-ad24-b861366b6894",
            "resource": {
                "resourceType": "MessageHeader",
                "id": "8ee3946d-2db6-4eaa-ad24-b861366b6894",
                "meta": {
                    "profile": [
                        "https://fhir.nhs.uk/STU3/StructureDefinition/ITK-MessageHeader-2"
                    ]
                },
                "extension": [
                    {
                        "url": "https://fhir.nhs.uk/STU3/StructureDefinition/Extension-ITK-MessageHandling-2",
                        "extension": [
                            {
                                "url": "BusAckRequested",
                                "valueBoolean": true
                            },
                            {
                                "url": "InfAckRequested",
                                "valueBoolean": true
                            },
                            {
                                "url": "RecipientType",
                                "valueCoding": {
                                    "system": "https://fhir.nhs.uk/STU3/CodeSystem/ITK-RecipientType-1",
                                    "code": "FA",
                                    "display": "For Action"
                                }
                            },
                            {
                                "url": "SenderReference",
                                "valueString": "None"
                            },
                            {
                                "url": "LocalExtension",
                                "valueString": "None"
                            }
                        ]
                    }
                ],
                "event": {
                    "system": "https://fhir.nhs.uk/STU3/CodeSystem/ITK-MessageEvent-2",
                    "code": "ITK012M",
                    "display": "ITK National Pathology"
                },
                "receiver": {
                    "reference": "urn:uuid:5b7457db-5d5c-42ea-be2d-a5f956df3157"
                },
                "sender": {
                    "reference": "urn:uuid:c62809f4-7349-4980-89af-536f3ef392b8"
                },
                "timestamp": "2010-03-01T17:51:00.000+00:00",
                "source": {
                    "endpoint": "lab_results_mailbox"
                },
                "responsible": {
                    "reference": "urn:uuid:c62809f4-7349-4980-89af-536f3ef392b8"
                },
                "focus": [
                    {
                        "reference": "urn:uuid:93521152-5970-4051-94e7-78c636f87a1f"
                    }
                ]
            }
        },
        {
            "fullUrl": "urn:uuid:64c190f1-68fa-45d8-bbc9-cbed99dc78f0",
            "resource": {
                "resourceType": "Patient",
                "id": "64c190f1-68fa-45d8-bbc9-cbed99dc78f0",
                "meta": {
                    "profile": [
                        "https://fhir.hl7.org.uk/STU3/StructureDefinition/CareConnect-Patient-1"
                    ]
                },
                "identifier": [
                    {
                        "extension": [
                            {
                                "url": "https://fhir.hl7.org.uk/STU3/StructureDefinition/Extension-CareConnect-NHSNumberVerificationStatus-1",
                                "valueCodeableConcept": {
                                    "coding": [
                                        {
                                            "system": "https://fhir.hl7.org.uk/STU3/CodeSystem/CareConnect-NHSNumberVerificationStatus-1",
                                            "code": "01",
                                            "display": "Number present and verified"
                                        }
                                    ]
                                }
                            }
                        ],
                        "system": "https://fhir.nhs.uk/Id/nhs-number",
                        "value": "9435492908"
                    }
                ],
                "name": [
                    {
                        "use": "official",
                        "family": "AZIZ",
                        "given": [
                            "NISMA"
                        ]
                    }
                ],
                "gender": "female",
                "birthDate": "1945-07-30",
                "address": [
                    {
                        "line": [
                            "FLAT1",
                            "59 SANDTOFT ROAD",
                            "DONCASTER"
                        ],
                        "postalCode": "DN9 1PJ"
                    }
                ]
            }
        },
        {
            "fullUrl": "urn:uuid:d77413ec-ed94-42a1-963e-90f169ceb707",
            "resource": {
                "resourceType": "Practitioner",
                "id": "d77413ec-ed94-42a1-963e-90f169ceb707",
                "meta": {
                    "profile": [
                        "https://fhir.hl7.org.uk/STU3/StructureDefinition/CareConnect-Practitioner-1"
                    ]
                },
                "identifier": [
                    {
                        "system": "https://fhir.nhs.uk/Id/sds-user-id",
                        "value": "G3380314"
                    }
                ],
                "name": [
                    {
                        "text": "SCOTT"
                    }
                ]
            }
        },
        {
            "fullUrl": "urn:uuid:5b7457db-5d5c-42ea-be2d-a5f956df3157",
            "resource": {
                "resourceType": "Organization",
                "id": "5b7457db-5d5c-42ea-be2d-a5f956df3157",
                "meta": {
                    "profile": [
                        "https://fhir.hl7.org.uk/STU3/StructureDefinition/CareConnect-Organization-1"
                    ]
                },
                "name": "NORTH DOWN GP"
            }
        },
        {
            "fullUrl": "urn:uuid:283536f8-a2c5-4a16-8aeb-b5077690db2c",
            "resource": {
                "resourceType": "Practitioner",
                "id": "283536f8-a2c5-4a16-8aeb-b5077690db2c",
                "meta": {
                    "profile": [
                        "https://fhir.hl7.org.uk/STU3/StructureDefinition/CareConnect-Practitioner-1"
                    ]
                }
            }
        },
        {
            "fullUrl": "urn:uuid:c62809f4-7349-4980-89af-536f3ef392b8",
            "resource": {
                "resourceType": "Organization",
                "id": "c62809f4-7349-4980-89af-536f3ef392b8",
                "meta": {
                    "profile": [
                        "https://fhir.hl7.org.uk/STU3/StructureDefinition/CareConnect-Organization-1"
                    ]
                },
                "type": [
                    {
                        "coding": [
                            {
                                "code": "dept",
                                "display": "Haematology"
                            }
                        ]
                    }
                ],
                "name": "ST JAMES'S UNIVERSITY HOSPITAL"
            }
        },
        {
            "fullUrl": "urn:uuid:ba202662-5e74-4a6e-977c-6270af9f210c",
            "resource": {
                "resourceType": "ProcedureRequest",
                "id": "ba202662-5e74-4a6e-977c-6270af9f210c",
                "meta": {
                    "profile": [
                        "https://fhir.hl7.org.uk/STU3/StructureDefinition/CareConnect-ProcedureRequest-1"
                    ]
                },
                "status": "unknown",
                "intent": "order",
                "code": {
                    "text": "unknown"
                },
                "subject": {
                    "reference": "urn:uuid:64c190f1-68fa-45d8-bbc9-cbed99dc78f0"
                },
                "requester": {
                    "agent": {
                        "reference": "urn:uuid:d77413ec-ed94-42a1-963e-90f169ceb707"
                    },
                    "onBehalfOf": {
                        "reference": "urn:uuid:5b7457db-5d5c-42ea-be2d-a5f956df3157"
                    }
                },
                "performer": {
                    "reference": "urn:uuid:283536f8-a2c5-4a16-8aeb-b5077690db2c"
                },
                "note": [
                    {
                        "text": "TIRED ALL THE TIME, LOW Hb"
                    },
                    {
                        "text": "COELIAC"
                    }
                ]
            }
        },
        {
            "fullUrl": "urn:uuid:93521152-5970-4051-94e7-78c636f87a1f",
            "resource": {
                "resourceType": "DiagnosticReport",
                "id": "93521152-5970-4051-94e7-78c636f87a1f",
                "meta": {
                    "profile": [
                        "https://fhir.hl7.org.uk/STU3/StructureDefinition/CareConnect-DiagnosticReport-1"
                    ]
                },
                "identifier": [
                    {
                        "system": "https://tools.ietf.org/html/rfc4122",
                        "value": "15/CH000037K/200010191704"
                    }
                ],
                "basedOn": [
                    {
                        "reference": "urn:uuid:ba202662-5e74-4a6e-977c-6270af9f210c"
                    }
                ],
                "status": "unknown",
                "code": {
                    "coding": [
                        {
                            "system": "http://snomed.info/sct",
                            "code": "721981007",
                            "display": "Diagnostic studies report"
                        }
                    ]
                },
                "subject": {
                    "reference": "urn:uuid:64c190f1-68fa-45d8-bbc9-cbed99dc78f0"
                },
                "issued": "2010-02-25T15:41:00.000+00:00",
                "performer": [
                    {
                        "actor": {
                            "reference": "urn:uuid:c62809f4-7349-4980-89af-536f3ef392b8"
                        }
                    },
                    {
                        "actor": {
                            "reference": "urn:uuid:283536f8-a2c5-4a16-8aeb-b5077690db2c"
                        }
                    }
                ],
                "specimen": [
                    {
                        "reference": "urn:uuid:1bd8fa84-0cea-490e-b531-db243d2d1457"
                    }
                ],
                "result": [
                    {
                        "reference": "urn:uuid:41df470a-1b8e-43ef-8668-fd3e9497ecfb"
                    }
                ]
            }
        },
        {
            "fullUrl": "urn:uuid:1bd8fa84-0cea-490e-b531-db243d2d1457",
            "resource": {
                "resourceType": "Specimen",
                "id": "1bd8fa84-0cea-490e-b531-db243d2d1457",
                "meta": {
                    "profile": [
                        "https://fhir.hl7.org.uk/STU3/StructureDefinition/CareConnect-Specimen-1"
                    ]
                },
                "accessionIdentifier": {
                    "system": "http://lab.acme.org/specimens/2011",
                    "value": "CH000037KA"
                },
                "type": {
                    "coding": [
                        {
                            "system": "http://snomed.info/sct",
                            "display": "VENOUS BLOOD"
                        }
                    ]
                },
                "subject": {
                    "reference": "urn:uuid:64c190f1-68fa-45d8-bbc9-cbed99dc78f0"
                },
                "receivedTime": "2010-02-24T15:41:00+00:00",
                "collection": {
                    "collectedDateTime": "2010-02-23T15:41:00+00:00"
>>>>>>> main
                }
            }, {
                "actor": {
                    "reference": "urn:uuid:283536f8-a2c5-4a16-8aeb-b5077690db2c"
                }
            } ],
            "specimen": [ {
                "reference": "urn:uuid:1bd8fa84-0cea-490e-b531-db243d2d1457"
            } ],
            "result": [ {
                "reference": "urn:uuid:41df470a-1b8e-43ef-8668-fd3e9497ecfb"
            } ]
        }
    }, {
        "fullUrl": "urn:uuid:1bd8fa84-0cea-490e-b531-db243d2d1457",
        "resource": {
            "resourceType": "Specimen",
            "id": "1bd8fa84-0cea-490e-b531-db243d2d1457",
            "meta": {
                "profile": [ "https://fhir.hl7.org.uk/STU3/StructureDefinition/CareConnect-Specimen-1" ]
            },
            "accessionIdentifier": {
                "system": "http://lab.acme.org/specimens/2011",
                "value": "CH000037KA"
            },
            "type": {
                "coding": [ {
                    "system": "http://snomed.info/sct",
                    "display": "VENOUS BLOOD"
                } ]
            },
            "subject": {
                "reference": "urn:uuid:64c190f1-68fa-45d8-bbc9-cbed99dc78f0"
            },
            "receivedTime": "2010-02-24T15:41:00+00:00",
            "collection": {
                "collectedDateTime": "2010-02-23T15:41:00+00:00"
            }
<<<<<<< HEAD
=======
        },
        {
            "fullUrl": "urn:uuid:41df470a-1b8e-43ef-8668-fd3e9497ecfb",
            "resource": {
                "resourceType": "Observation",
                "id": "41df470a-1b8e-43ef-8668-fd3e9497ecfb",
                "meta": {
                    "profile": [
                        "https://fhir.hl7.org.uk/STU3/StructureDefinition/CareConnect-Observation-1"
                    ]
                },
                "status": "final",
                "code": {
                    "coding": [
                        {
                            "display": "B12/FOLATE"
                        }
                    ]
                },
                "subject": {
                    "reference": "urn:uuid:64c190f1-68fa-45d8-bbc9-cbed99dc78f0"
                },
                "performer": [
                    {
                        "reference": "urn:uuid:c62809f4-7349-4980-89af-536f3ef392b8"
                    },
                    {
                        "reference": "urn:uuid:283536f8-a2c5-4a16-8aeb-b5077690db2c"
                    }
                ],
                "comment": "Results repeated Low plasma Folate",
                "specimen": {
                    "reference": "urn:uuid:1bd8fa84-0cea-490e-b531-db243d2d1457"
                },
                "related": [
                    {
                        "type": "has-member",
                        "target": {
                            "reference": "urn:uuid:44a6f7c7-ff5f-40a1-b490-0f78d11ce758"
                        }
                    },
                    {
                        "type": "has-member",
                        "target": {
                            "reference": "urn:uuid:2e8dab92-5e39-4c04-999f-8c8f2a3bfe6b"
                        }
                    }
                ]
            }
        },
        {
            "fullUrl": "urn:uuid:44a6f7c7-ff5f-40a1-b490-0f78d11ce758",
            "resource": {
                "resourceType": "Observation",
                "id": "44a6f7c7-ff5f-40a1-b490-0f78d11ce758",
                "meta": {
                    "profile": [
                        "https://fhir.hl7.org.uk/STU3/StructureDefinition/CareConnect-Observation-1"
                    ]
                },
                "status": "final",
                "code": {
                    "coding": [
                        {
                            "system": "http://read.info/readv2",
                            "code": "42T..",
                            "display": "Serum vitamin B12"
                        }
                    ]
                },
                "subject": {
                    "reference": "urn:uuid:64c190f1-68fa-45d8-bbc9-cbed99dc78f0"
                },
                "performer": [
                    {
                        "reference": "urn:uuid:c62809f4-7349-4980-89af-536f3ef392b8"
                    },
                    {
                        "reference": "urn:uuid:283536f8-a2c5-4a16-8aeb-b5077690db2c"
                    }
                ],
                "valueQuantity": {
                    "value": 1001,
                    "unit": "ng/L"
                },
                "specimen": {
                    "reference": "urn:uuid:1bd8fa84-0cea-490e-b531-db243d2d1457"
                },
                "referenceRange": [
                    {
                        "low": {
                            "value": 170
                        },
                        "high": {
                            "value": 1100
                        }
                    }
                ],
                "related": [
                    {
                        "target": {
                            "reference": "urn:uuid:41df470a-1b8e-43ef-8668-fd3e9497ecfb"
                        }
                    }
                ]
            }
        },
        {
            "fullUrl": "urn:uuid:2e8dab92-5e39-4c04-999f-8c8f2a3bfe6b",
            "resource": {
                "resourceType": "Observation",
                "id": "2e8dab92-5e39-4c04-999f-8c8f2a3bfe6b",
                "meta": {
                    "profile": [
                        "https://fhir.hl7.org.uk/STU3/StructureDefinition/CareConnect-Observation-1"
                    ]
                },
                "status": "final",
                "code": {
                    "coding": [
                        {
                            "system": "http://read.info/readv2",
                            "code": "42UE.",
                            "display": "Plasma folate level"
                        }
                    ]
                },
                "subject": {
                    "reference": "urn:uuid:64c190f1-68fa-45d8-bbc9-cbed99dc78f0"
                },
                "performer": [
                    {
                        "reference": "urn:uuid:c62809f4-7349-4980-89af-536f3ef392b8"
                    },
                    {
                        "reference": "urn:uuid:283536f8-a2c5-4a16-8aeb-b5077690db2c"
                    }
                ],
                "valueQuantity": {
                    "value": 0.8,
                    "unit": "ng/mL"
                },
                "specimen": {
                    "reference": "urn:uuid:1bd8fa84-0cea-490e-b531-db243d2d1457"
                },
                "referenceRange": [
                    {
                        "low": {
                            "value": 2.0
                        },
                        "high": {
                            "value": 20.0
                        }
                    }
                ],
                "related": [
                    {
                        "target": {
                            "reference": "urn:uuid:41df470a-1b8e-43ef-8668-fd3e9497ecfb"
                        }
                    }
                ]
            }
>>>>>>> main
        }
    }, {
        "fullUrl": "urn:uuid:41df470a-1b8e-43ef-8668-fd3e9497ecfb",
        "resource": {
            "resourceType": "Observation",
            "id": "41df470a-1b8e-43ef-8668-fd3e9497ecfb",
            "meta": {
                "profile": [ "https://fhir.hl7.org.uk/STU3/StructureDefinition/CareConnect-Observation-1" ]
            },
            "status": "final",
            "code": {
                "coding": [ {
                    "display": "B12/FOLATE"
                } ]
            },
            "subject": {
                "reference": "urn:uuid:64c190f1-68fa-45d8-bbc9-cbed99dc78f0"
            },
            "performer": [ {
                "reference": "urn:uuid:c62809f4-7349-4980-89af-536f3ef392b8"
            }, {
                "reference": "urn:uuid:283536f8-a2c5-4a16-8aeb-b5077690db2c"
            } ],
            "comment": "Results repeated Low plasma Folate",
            "specimen": {
                "reference": "urn:uuid:1bd8fa84-0cea-490e-b531-db243d2d1457"
            },
            "related": [ {
                "type": "has-member",
                "target": {
                    "reference": "urn:uuid:44a6f7c7-ff5f-40a1-b490-0f78d11ce758"
                }
            }, {
                "type": "has-member",
                "target": {
                    "reference": "urn:uuid:2e8dab92-5e39-4c04-999f-8c8f2a3bfe6b"
                }
            } ]
        }
    }, {
        "fullUrl": "urn:uuid:44a6f7c7-ff5f-40a1-b490-0f78d11ce758",
        "resource": {
            "resourceType": "Observation",
            "id": "44a6f7c7-ff5f-40a1-b490-0f78d11ce758",
            "meta": {
                "profile": [ "https://fhir.hl7.org.uk/STU3/StructureDefinition/CareConnect-Observation-1" ]
            },
            "status": "final",
            "code": {
                "coding": [ {
                    "system": "http://read.info/readv2",
                    "code": "42T..",
                    "display": "Serum vitamin B12"
                } ]
            },
            "subject": {
                "reference": "urn:uuid:64c190f1-68fa-45d8-bbc9-cbed99dc78f0"
            },
            "performer": [ {
                "reference": "urn:uuid:c62809f4-7349-4980-89af-536f3ef392b8"
            }, {
                "reference": "urn:uuid:283536f8-a2c5-4a16-8aeb-b5077690db2c"
            } ],
            "valueQuantity": {
                "value": 1001,
                "unit": "ng/L"
            },
            "specimen": {
                "reference": "urn:uuid:1bd8fa84-0cea-490e-b531-db243d2d1457"
            },
            "referenceRange": [ {
                "low": {
                    "value": 170
                },
                "high": {
                    "value": 1100
                }
            } ],
            "related": [ {
                "target": {
                    "reference": "urn:uuid:41df470a-1b8e-43ef-8668-fd3e9497ecfb"
                }
            } ]
        }
    }, {
        "fullUrl": "urn:uuid:2e8dab92-5e39-4c04-999f-8c8f2a3bfe6b",
        "resource": {
            "resourceType": "Observation",
            "id": "2e8dab92-5e39-4c04-999f-8c8f2a3bfe6b",
            "meta": {
                "profile": [ "https://fhir.hl7.org.uk/STU3/StructureDefinition/CareConnect-Observation-1" ]
            },
            "status": "final",
            "code": {
                "coding": [ {
                    "system": "http://read.info/readv2",
                    "code": "42UE.",
                    "display": "Plasma folate level"
                } ]
            },
            "subject": {
                "reference": "urn:uuid:64c190f1-68fa-45d8-bbc9-cbed99dc78f0"
            },
            "performer": [ {
                "reference": "urn:uuid:c62809f4-7349-4980-89af-536f3ef392b8"
            }, {
                "reference": "urn:uuid:283536f8-a2c5-4a16-8aeb-b5077690db2c"
            } ],
            "valueQuantity": {
                "value": 0.8,
                "unit": "ng/mL"
            },
            "specimen": {
                "reference": "urn:uuid:1bd8fa84-0cea-490e-b531-db243d2d1457"
            },
            "referenceRange": [ {
                "low": {
                    "value": 2.0
                },
                "high": {
                    "value": 20.0
                }
            } ],
            "related": [ {
                "target": {
                    "reference": "urn:uuid:41df470a-1b8e-43ef-8668-fd3e9497ecfb"
                }
            } ]
        }
    } ]
}