{
    "resourceType": "Bundle",
    "id": "e9d88211-fdb4-4391-affd-24f317285773",
    "meta": {
        "lastUpdated": "2021-05-31T13:06:52.759+01:00",
        "profile": [
            "https://fhir.nhs.uk/STU3/StructureDefinition/ITK-Message-Bundle-1"
        ]
    },
    "identifier": {
        "system": "https://tools.ietf.org/html/rfc4122",
        "value": "3f99fade-6352-4481-b69a-787e3d4d7584"
    },
    "type": "message",
    "entry": [
        {
            "fullUrl": "urn:uuid:8cbe62b1-86c5-4b75-82b1-5be7410fb92e",
            "resource": {
                "resourceType": "MessageHeader",
                "id": "8cbe62b1-86c5-4b75-82b1-5be7410fb92e",
                "meta": {
                    "profile": [
                        "https://fhir.nhs.uk/STU3/StructureDefinition/ITK-MessageHeader-2"
                    ]
                },
                "extension": [
                    {
                        "url": "https://fhir.nhs.uk/STU3/StructureDefinition/Extension-ITK-MessageHandling-2",
                        "extension": [
                            {
                                "url": "BusAckRequested",
                                "valueBoolean": true
                            },
                            {
                                "url": "InfAckRequested",
                                "valueBoolean": true
                            },
                            {
                                "url": "RecipientType",
                                "valueCoding": {
                                    "system": "https://fhir.nhs.uk/STU3/CodeSystem/ITK-RecipientType-1",
                                    "code": "FA",
                                    "display": "For Action"
                                }
                            },
                            {
                                "url": "SenderReference",
                                "valueString": "None"
                            },
                            {
                                "url": "LocalExtension",
                                "valueString": "None"
                            }
                        ]
                    }
                ],
                "event": {
                    "system": "https://fhir.nhs.uk/STU3/CodeSystem/ITK-MessageEvent-2",
                    "code": "ITK012M",
                    "display": "ITK National Pathology"
                },
                "receiver": {
                    "reference": "urn:uuid:725d9c03-6270-4dd5-9482-eccc71715fa4"
                },
                "sender": {
                    "reference": "urn:uuid:d2ddf5ba-9cf4-4c32-8ab5-f3eedec02f56"
                },
                "timestamp": "2010-03-01T17:51:00.000+00:00",
                "source": {
                    "endpoint": "lab_results_mailbox"
                },
                "responsible": {
                    "reference": "urn:uuid:d2ddf5ba-9cf4-4c32-8ab5-f3eedec02f56"
                },
                "focus": [
                    {
                        "reference": "urn:uuid:b37127c8-e69a-4d26-ace1-7d97038fbc36"
                    }
                ]
            }
        },
        {
            "fullUrl": "urn:uuid:eed22444-47ef-41ff-988d-8af6aa263c11",
            "resource": {
                "resourceType": "Patient",
                "id": "eed22444-47ef-41ff-988d-8af6aa263c11",
                "meta": {
                    "profile": [
                        "https://fhir.hl7.org.uk/STU3/StructureDefinition/CareConnect-Patient-1"
                    ]
                },
                "identifier": [
                    {
                        "extension": [
                            {
                                "url": "https://fhir.hl7.org.uk/STU3/StructureDefinition/Extension-CareConnect-NHSNumberVerificationStatus-1",
                                "valueCodeableConcept": {
                                    "coding": [
                                        {
                                            "system": "https://fhir.hl7.org.uk/STU3/CodeSystem/CareConnect-NHSNumberVerificationStatus-1",
                                            "code": "01",
                                            "display": "Number present and verified"
                                        }
                                    ]
                                }
                            }
                        ],
                        "system": "https://fhir.nhs.uk/Id/nhs-number",
                        "value": "9435492908"
                    }
                ],
                "name": [
                    {
                        "use": "official",
                        "family": "AZIZ",
                        "given": [
                            "NISMA"
                        ]
                    }
                ],
                "gender": "female",
                "birthDate": "1945-07-30",
                "address": [
                    {
                        "line": [
                            "FLAT1",
                            "59 SANDTOFT ROAD",
                            "DONCASTER"
                        ],
                        "postalCode": "DN9 1PJ"
                    }
                ]
            }
        },
        {
            "fullUrl": "urn:uuid:c4bd9ff9-c63e-4efb-a1b3-c2ef2870389b",
            "resource": {
                "resourceType": "Practitioner",
                "id": "c4bd9ff9-c63e-4efb-a1b3-c2ef2870389b",
                "meta": {
                    "profile": [
                        "https://fhir.hl7.org.uk/STU3/StructureDefinition/CareConnect-Practitioner-1"
                    ]
                },
                "identifier": [
                    {
                        "system": "https://fhir.nhs.uk/Id/sds-user-id",
                        "value": "G3380314"
                    }
                ],
                "name": [
                    {
                        "text": "SCOTT"
                    }
                ]
            }
        },
        {
            "fullUrl": "urn:uuid:725d9c03-6270-4dd5-9482-eccc71715fa4",
            "resource": {
                "resourceType": "Organization",
                "id": "725d9c03-6270-4dd5-9482-eccc71715fa4",
                "meta": {
                    "profile": [
                        "https://fhir.hl7.org.uk/STU3/StructureDefinition/CareConnect-Organization-1"
                    ]
                },
                "name": "NORTH DOWN GP"
            }
        },
        {
            "fullUrl": "urn:uuid:4b18eaad-743e-4e81-bc21-038d92da3a71",
            "resource": {
                "resourceType": "Practitioner",
                "id": "4b18eaad-743e-4e81-bc21-038d92da3a71",
                "meta": {
                    "profile": [
                        "https://fhir.hl7.org.uk/STU3/StructureDefinition/CareConnect-Practitioner-1"
                    ]
                }
            }
        },
        {
            "fullUrl": "urn:uuid:d2ddf5ba-9cf4-4c32-8ab5-f3eedec02f56",
            "resource": {
                "resourceType": "Organization",
                "id": "d2ddf5ba-9cf4-4c32-8ab5-f3eedec02f56",
                "meta": {
                    "profile": [
                        "https://fhir.hl7.org.uk/STU3/StructureDefinition/CareConnect-Organization-1"
                    ]
                },
                "type": [
                    {
                        "coding": [
                            {
                                "code": "dept",
                                "display": "Haematology"
                            }
                        ]
                    }
                ],
                "name": "ST JAMES'S UNIVERSITY HOSPITAL"
            }
        },
        {
            "fullUrl": "urn:uuid:c1fcc616-31ea-4668-924e-b49e6a1b4ee9",
            "resource": {
                "resourceType": "ProcedureRequest",
                "id": "c1fcc616-31ea-4668-924e-b49e6a1b4ee9",
                "meta": {
                    "profile": [
                        "https://fhir.hl7.org.uk/STU3/StructureDefinition/CareConnect-ProcedureRequest-1"
                    ]
                },
                "status": "unknown",
                "intent": "order",
                "code": {
                    "coding": [
                        {
                            "system": "http://snomed.info/sct",
                            "code": "15220000",
                            "display": "Laboratory test (procedure)"
                        }
                    ]
                },
                "subject": {
                    "reference": "urn:uuid:eed22444-47ef-41ff-988d-8af6aa263c11"
                },
                "requester": {
                    "agent": {
                        "reference": "urn:uuid:c4bd9ff9-c63e-4efb-a1b3-c2ef2870389b"
                    },
                    "onBehalfOf": {
                        "reference": "urn:uuid:725d9c03-6270-4dd5-9482-eccc71715fa4"
                    }
                },
                "performer": {
                    "reference": "urn:uuid:4b18eaad-743e-4e81-bc21-038d92da3a71"
                },
                "note": [
                    {
                        "text": "TIRED ALL THE TIME, LOW Hb"
                    },
                    {
                        "text": "COELIAC"
                    }
                ]
            }
        },
        {
            "fullUrl": "urn:uuid:b37127c8-e69a-4d26-ace1-7d97038fbc36",
            "resource": {
                "resourceType": "DiagnosticReport",
                "id": "b37127c8-e69a-4d26-ace1-7d97038fbc36",
                "meta": {
                    "profile": [
                        "https://fhir.hl7.org.uk/STU3/StructureDefinition/CareConnect-DiagnosticReport-1"
                    ]
                },
                "identifier": [
                    {
                        "system": "https://tools.ietf.org/html/rfc4122",
                        "value": "15/CH000037K/200010191704"
                    }
                ],
                "basedOn": [
                    {
                        "reference": "urn:uuid:c1fcc616-31ea-4668-924e-b49e6a1b4ee9"
                    }
                ],
                "status": "unknown",
                "code": {
                    "coding": [
                        {
                            "system": "http://snomed.info/sct",
                            "code": "721981007",
                            "display": "Diagnostic studies report"
                        }
                    ]
                },
                "subject": {
                    "reference": "urn:uuid:eed22444-47ef-41ff-988d-8af6aa263c11"
                },
                "issued": "2010-02-25T15:41:00.000+00:00",
                "performer": [
                    {
                        "actor": {
                            "reference": "urn:uuid:d2ddf5ba-9cf4-4c32-8ab5-f3eedec02f56"
                        }
                    },
                    {
                        "actor": {
                            "reference": "urn:uuid:4b18eaad-743e-4e81-bc21-038d92da3a71"
                        }
                    }
                ],
                "specimen": [
                    {
                        "reference": "urn:uuid:573b8ef1-0dbe-4a3b-a687-3906f8aa0728"
                    }
                ],
                "result": [
                    {
                        "reference": "urn:uuid:de22fba5-656b-4b60-ba00-6bb94599d165"
                    }
                ]
            }
        },
        {
            "fullUrl": "urn:uuid:573b8ef1-0dbe-4a3b-a687-3906f8aa0728",
            "resource": {
                "resourceType": "Specimen",
                "id": "573b8ef1-0dbe-4a3b-a687-3906f8aa0728",
                "meta": {
                    "profile": [
                        "https://fhir.hl7.org.uk/STU3/StructureDefinition/CareConnect-Specimen-1"
                    ]
                },
                "accessionIdentifier": {
                    "system": "http://lab.acme.org/specimens/2011",
                    "value": "CH000037KA"
                },
                "type": {
                    "coding": [
                        {
                            "system": "http://snomed.info/sct",
                            "display": "VENOUS BLOOD"
                        }
                    ]
                },
                "subject": {
                    "reference": "urn:uuid:eed22444-47ef-41ff-988d-8af6aa263c11"
                },
                "receivedTime": "2010-02-24T15:41:00+00:00",
                "collection": {
                    "collectedDateTime": "2010-02-23T15:41:00+00:00"
                }
            }
        },
        {
            "fullUrl": "urn:uuid:de22fba5-656b-4b60-ba00-6bb94599d165",
            "resource": {
                "resourceType": "Observation",
                "id": "de22fba5-656b-4b60-ba00-6bb94599d165",
                "meta": {
                    "profile": [
                        "https://fhir.hl7.org.uk/STU3/StructureDefinition/CareConnect-Observation-1"
                    ]
                },
                "status": "final",
                "code": {
                    "coding": [
                        {
                            "display": "B12/FOLATE"
                        }
                    ]
                },
                "subject": {
                    "reference": "urn:uuid:eed22444-47ef-41ff-988d-8af6aa263c11"
                },
                "performer": [
                    {
                        "reference": "urn:uuid:d2ddf5ba-9cf4-4c32-8ab5-f3eedec02f56"
                    },
                    {
                        "reference": "urn:uuid:4b18eaad-743e-4e81-bc21-038d92da3a71"
                    }
                ],
                "comment": "Results repeated Low plasma Folate",
                "specimen": {
                    "reference": "urn:uuid:573b8ef1-0dbe-4a3b-a687-3906f8aa0728"
                },
                "related": [
                    {
                        "type": "has-member",
                        "target": {
                            "reference": "urn:uuid:83718a59-f5cc-4783-8c0a-3c8aa081e215"
                        }
                    },
                    {
                        "type": "has-member",
                        "target": {
                            "reference": "urn:uuid:e5b99b57-5455-4810-a534-c0036f4e21ed"
                        }
                    }
                ]
            }
        },
        {
            "fullUrl": "urn:uuid:83718a59-f5cc-4783-8c0a-3c8aa081e215",
            "resource": {
                "resourceType": "Observation",
                "id": "83718a59-f5cc-4783-8c0a-3c8aa081e215",
                "meta": {
                    "profile": [
                        "https://fhir.hl7.org.uk/STU3/StructureDefinition/CareConnect-Observation-1"
                    ]
                },
                "status": "final",
                "code": {
                    "coding": [
                        {
                            "system": "http://read.info/readv2",
                            "code": "42T..",
                            "display": "Serum vitamin B12"
                        }
                    ]
                },
                "subject": {
                    "reference": "urn:uuid:eed22444-47ef-41ff-988d-8af6aa263c11"
                },
                "performer": [
                    {
                        "reference": "urn:uuid:d2ddf5ba-9cf4-4c32-8ab5-f3eedec02f56"
                    },
                    {
                        "reference": "urn:uuid:4b18eaad-743e-4e81-bc21-038d92da3a71"
                    }
                ],
                "valueQuantity": {
                    "value": 1001,
                    "unit": "ng/L"
                },
                "specimen": {
                    "reference": "urn:uuid:573b8ef1-0dbe-4a3b-a687-3906f8aa0728"
                },
                "referenceRange": [
                    {
                        "low": {
                            "value": 170
                        },
                        "high": {
                            "value": 1100
                        }
                    }
                ],
                "related": [
                    {
                        "target": {
                            "reference": "urn:uuid:de22fba5-656b-4b60-ba00-6bb94599d165"
                        }
                    }
                ]
            }
        },
        {
            "fullUrl": "urn:uuid:e5b99b57-5455-4810-a534-c0036f4e21ed",
            "resource": {
                "resourceType": "Observation",
                "id": "e5b99b57-5455-4810-a534-c0036f4e21ed",
                "meta": {
                    "profile": [
                        "https://fhir.hl7.org.uk/STU3/StructureDefinition/CareConnect-Observation-1"
                    ]
                },
                "status": "final",
                "code": {
                    "coding": [
                        {
                            "system": "http://read.info/readv2",
                            "code": "42UE.",
                            "display": "Plasma folate level"
                        }
                    ]
                },
                "subject": {
                    "reference": "urn:uuid:eed22444-47ef-41ff-988d-8af6aa263c11"
                },
                "performer": [
                    {
                        "reference": "urn:uuid:d2ddf5ba-9cf4-4c32-8ab5-f3eedec02f56"
                    },
                    {
                        "reference": "urn:uuid:4b18eaad-743e-4e81-bc21-038d92da3a71"
                    }
                ],
                "valueQuantity": {
                    "value": 0.8,
                    "unit": "ng/mL"
                },
                "specimen": {
                    "reference": "urn:uuid:573b8ef1-0dbe-4a3b-a687-3906f8aa0728"
                },
                "referenceRange": [
                    {
                        "low": {
                            "value": 2.0
                        },
                        "high": {
                            "value": 20.0
                        }
                    }
                ],
                "related": [
                    {
                        "target": {
                            "reference": "urn:uuid:de22fba5-656b-4b60-ba00-6bb94599d165"
                        }
                    }
                ]
            }
        }
    ]
}