{
    "resourceType": "Bundle",
    "id": "4fdf3ad2-538b-48c3-8197-72e17a2edffe",
    "meta": {
        "lastUpdated": "2021-06-08T10:50:38.883+01:00",
        "profile": [
            "https://fhir.nhs.uk/STU3/StructureDefinition/ITK-Message-Bundle-1"
        ]
    },
    "identifier": {
        "system": "https://tools.ietf.org/html/rfc4122",
        "value": "57d1fb41-27fd-4a1c-af78-8208fa7f6be9"
    },
    "type": "message",
    "entry": [
        {
            "fullUrl": "urn:uuid:6ab85e7c-c95e-4a4d-8a8a-4232bfe79a6f",
            "resource": {
                "resourceType": "MessageHeader",
                "id": "6ab85e7c-c95e-4a4d-8a8a-4232bfe79a6f",
                "meta": {
                    "profile": [
                        "https://fhir.nhs.uk/STU3/StructureDefinition/ITK-MessageHeader-2"
                    ]
                },
                "extension": [
                    {
                        "url": "https://fhir.nhs.uk/STU3/StructureDefinition/Extension-ITK-MessageHandling-2",
                        "extension": [
                            {
                                "url": "BusAckRequested",
                                "valueBoolean": true
                            },
                            {
                                "url": "InfAckRequested",
                                "valueBoolean": true
                            },
                            {
                                "url": "RecipientType",
                                "valueCoding": {
                                    "system": "https://fhir.nhs.uk/STU3/CodeSystem/ITK-RecipientType-1",
                                    "code": "FA",
                                    "display": "For Action"
                                }
                            },
                            {
                                "url": "SenderReference",
                                "valueString": "None"
                            },
                            {
                                "url": "LocalExtension",
                                "valueString": "None"
                            }
                        ]
                    }
                ],
                "event": {
                    "system": "https://fhir.nhs.uk/STU3/CodeSystem/ITK-MessageEvent-2",
                    "code": "ITK012M",
                    "display": "ITK National Pathology"
                },
                "receiver": {
                    "reference": "urn:uuid:93567ee9-fe93-40ac-9ad6-2266669ad93f"
                },
                "sender": {
                    "reference": "urn:uuid:1687bb70-f9db-4ab7-a559-313d412f4811"
                },
                "timestamp": "2010-03-01T17:51:00.000+00:00",
                "source": {
                    "endpoint": "lab_results_mailbox"
                },
                "responsible": {
                    "reference": "urn:uuid:1687bb70-f9db-4ab7-a559-313d412f4811"
                },
                "focus": [
                    {
                        "reference": "urn:uuid:39a36730-072d-4968-bdf1-d2258e71ffba"
                    }
                ]
            }
        },
        {
            "fullUrl": "urn:uuid:401e5433-1726-40c9-8333-ea09479a2d92",
            "resource": {
                "resourceType": "Patient",
                "id": "401e5433-1726-40c9-8333-ea09479a2d92",
                "meta": {
                    "profile": [
                        "https://fhir.hl7.org.uk/STU3/StructureDefinition/CareConnect-Patient-1"
                    ]
                },
                "identifier": [
                    {
                        "extension": [
                            {
                                "url": "https://fhir.hl7.org.uk/STU3/StructureDefinition/Extension-CareConnect-NHSNumberVerificationStatus-1",
                                "valueCodeableConcept": {
                                    "coding": [
                                        {
                                            "system": "https://fhir.hl7.org.uk/STU3/CodeSystem/CareConnect-NHSNumberVerificationStatus-1",
                                            "code": "01",
                                            "display": "Number present and verified"
                                        }
                                    ]
                                }
                            }
                        ],
                        "system": "https://fhir.nhs.uk/Id/nhs-number",
                        "value": "9435492908"
                    }
                ],
                "name": [
                    {
                        "use": "official",
                        "family": "AZIZ",
                        "given": [
                            "NISMA"
                        ]
                    }
                ],
                "gender": "female",
                "birthDate": "1945-07-30",
                "address": [
                    {
                        "line": [
                            "FLAT1",
                            "59 SANDTOFT ROAD",
                            "DONCASTER"
                        ],
                        "postalCode": "DN9 1PJ"
                    }
                ]
            }
        },
        {
            "fullUrl": "urn:uuid:696d6970-11e0-416d-876a-762d34538e09",
            "resource": {
                "resourceType": "Practitioner",
                "id": "696d6970-11e0-416d-876a-762d34538e09",
                "meta": {
                    "profile": [
                        "https://fhir.hl7.org.uk/STU3/StructureDefinition/CareConnect-Practitioner-1"
                    ]
                },
                "identifier": [
                    {
                        "value": "G9304284"
                    }
                ],
                "name": [
                    {
                        "text": "DR A DOCTOR"
                    }
                ]
            }
        },
        {
            "fullUrl": "urn:uuid:93567ee9-fe93-40ac-9ad6-2266669ad93f",
            "resource": {
                "resourceType": "Organization",
                "id": "93567ee9-fe93-40ac-9ad6-2266669ad93f",
                "meta": {
                    "profile": [
                        "https://fhir.hl7.org.uk/STU3/StructureDefinition/CareConnect-Organization-1"
                    ]
                },
                "identifier": [
                    {
                        "system": "https://fhir.nhs.uk/Id/ods-organization-code",
                        "value": "L99999"
                    }
                ]
            }
        },
        {
            "fullUrl": "urn:uuid:e1a99d15-6138-4743-8af7-8a5c070c2652",
            "resource": {
                "resourceType": "Practitioner",
                "id": "e1a99d15-6138-4743-8af7-8a5c070c2652",
                "meta": {
                    "profile": [
                        "https://fhir.hl7.org.uk/STU3/StructureDefinition/CareConnect-Practitioner-1"
                    ]
                }
            }
        },
        {
            "fullUrl": "urn:uuid:1687bb70-f9db-4ab7-a559-313d412f4811",
            "resource": {
                "resourceType": "Organization",
                "id": "1687bb70-f9db-4ab7-a559-313d412f4811",
                "meta": {
                    "profile": [
                        "https://fhir.hl7.org.uk/STU3/StructureDefinition/CareConnect-Organization-1"
                    ]
                },
                "type": [
                    {
                        "coding": [
                            {
                                "code": "dept",
                                "display": "Haematology"
                            }
                        ]
                    }
                ],
                "name": "ST JAMES'S UNIVERSITY HOSPITAL"
            }
        },
        {
            "fullUrl": "urn:uuid:56266d0f-ca95-4f70-83df-65c39de6fc91",
            "resource": {
                "resourceType": "ProcedureRequest",
                "id": "56266d0f-ca95-4f70-83df-65c39de6fc91",
                "meta": {
                    "profile": [
                        "https://fhir.hl7.org.uk/STU3/StructureDefinition/CareConnect-ProcedureRequest-1"
                    ]
                },
                "status": "active",
                "intent": "order",
                "code": {
                    "coding": [
                        {
                            "system": "http://snomed.info/sct",
                            "code": "15220000",
                            "display": "Laboratory test (procedure)"
                        }
                    ]
                },
                "subject": {
                    "reference": "urn:uuid:401e5433-1726-40c9-8333-ea09479a2d92"
                },
                "requester": {
                    "agent": {
                        "reference": "urn:uuid:696d6970-11e0-416d-876a-762d34538e09"
                    },
                    "onBehalfOf": {
                        "reference": "urn:uuid:93567ee9-fe93-40ac-9ad6-2266669ad93f"
                    }
                },
                "performer": {
                    "reference": "urn:uuid:e1a99d15-6138-4743-8af7-8a5c070c2652"
                },
                "note": [
                    {
                        "text": "TIRED ALL THE TIME, LOW Hb"
                    },
                    {
                        "text": "COELIAC"
                    }
                ]
            }
        },
        {
            "fullUrl": "urn:uuid:39a36730-072d-4968-bdf1-d2258e71ffba",
            "resource": {
                "resourceType": "DiagnosticReport",
                "id": "39a36730-072d-4968-bdf1-d2258e71ffba",
                "meta": {
                    "profile": [
                        "https://fhir.hl7.org.uk/STU3/StructureDefinition/CareConnect-DiagnosticReport-1"
                    ]
                },
                "identifier": [
                    {
                        "system": "https://tools.ietf.org/html/rfc4122",
                        "value": "15/CH000037K/200010191704"
                    }
                ],
                "basedOn": [
                    {
                        "reference": "urn:uuid:56266d0f-ca95-4f70-83df-65c39de6fc91"
                    }
                ],
                "status": "unknown",
                "code": {
                    "coding": [
                        {
                            "system": "http://snomed.info/sct",
                            "code": "721981007",
                            "display": "Diagnostic studies report"
                        }
                    ]
                },
                "subject": {
                    "reference": "urn:uuid:401e5433-1726-40c9-8333-ea09479a2d92"
                },
                "issued": "2010-02-25T15:41:00.000+00:00",
                "performer": [
                    {
                        "actor": {
                            "reference": "urn:uuid:1687bb70-f9db-4ab7-a559-313d412f4811"
                        }
                    },
                    {
                        "actor": {
                            "reference": "urn:uuid:e1a99d15-6138-4743-8af7-8a5c070c2652"
                        }
                    }
                ],
                "specimen": [
                    {
                        "reference": "urn:uuid:3c6e6f65-52b8-4238-8aa3-157f7e9bed1b"
                    }
                ],
                "result": [
                    {
                        "reference": "urn:uuid:af257379-9eba-418d-85f0-894dd421c13c"
                    },
                    {
                        "reference": "urn:uuid:b22da307-5877-4db7-a5c3-f96a953a3201"
                    },
                    {
                        "reference": "urn:uuid:3756fb9a-800b-452d-8da0-36182f897fa2"
                    }
                ]
            }
        },
        {
            "fullUrl": "urn:uuid:3c6e6f65-52b8-4238-8aa3-157f7e9bed1b",
            "resource": {
                "resourceType": "Specimen",
                "id": "3c6e6f65-52b8-4238-8aa3-157f7e9bed1b",
                "meta": {
                    "profile": [
                        "https://fhir.hl7.org.uk/STU3/StructureDefinition/CareConnect-Specimen-1"
                    ]
                },
                "accessionIdentifier": {
                    "value": "CH000037KA"
                },
                "type": {
                    "coding": [
                        {
                            "code": "T016",
                            "display": "VENOUS BLOOD"
                        }
                    ]
                },
                "subject": {
                    "reference": "urn:uuid:401e5433-1726-40c9-8333-ea09479a2d92"
                },
                "receivedTime": "2010-02-24T15:41:00+00:00",
                "collection": {
                    "collectedDateTime": "2010-02-23T15:41:00+00:00"
                }
            }
        },
        {
            "fullUrl": "urn:uuid:af257379-9eba-418d-85f0-894dd421c13c",
            "resource": {
                "resourceType": "Observation",
                "id": "af257379-9eba-418d-85f0-894dd421c13c",
                "meta": {
                    "profile": [
                        "https://fhir.hl7.org.uk/STU3/StructureDefinition/CareConnect-Observation-1"
                    ]
                },
                "status": "final",
                "code": {
                    "coding": [
                        {
                            "display": "B12/FOLATE"
                        }
                    ]
                },
                "subject": {
                    "reference": "urn:uuid:401e5433-1726-40c9-8333-ea09479a2d92"
                },
                "performer": [
                    {
                        "reference": "urn:uuid:1687bb70-f9db-4ab7-a559-313d412f4811"
                    },
                    {
                        "reference": "urn:uuid:e1a99d15-6138-4743-8af7-8a5c070c2652"
                    }
                ],
                "comment": "Results repeated Low plasma Folate",
                "specimen": {
                    "reference": "urn:uuid:3c6e6f65-52b8-4238-8aa3-157f7e9bed1b"
                },
                "related": [
                    {
                        "type": "has-member",
                        "target": {
                            "reference": "urn:uuid:b22da307-5877-4db7-a5c3-f96a953a3201"
                        }
                    },
                    {
                        "type": "has-member",
                        "target": {
                            "reference": "urn:uuid:3756fb9a-800b-452d-8da0-36182f897fa2"
                        }
                    }
                ]
            }
        },
        {
            "fullUrl": "urn:uuid:b22da307-5877-4db7-a5c3-f96a953a3201",
            "resource": {
                "resourceType": "Observation",
                "id": "b22da307-5877-4db7-a5c3-f96a953a3201",
                "meta": {
                    "profile": [
                        "https://fhir.hl7.org.uk/STU3/StructureDefinition/CareConnect-Observation-1"
                    ]
                },
                "status": "final",
                "code": {
                    "coding": [
                        {
                            "system": "http://read.info/readv2",
                            "code": "42T..",
                            "display": "Serum vitamin B12"
                        }
                    ]
                },
                "subject": {
                    "reference": "urn:uuid:401e5433-1726-40c9-8333-ea09479a2d92"
                },
                "performer": [
                    {
                        "reference": "urn:uuid:1687bb70-f9db-4ab7-a559-313d412f4811"
                    },
                    {
                        "reference": "urn:uuid:e1a99d15-6138-4743-8af7-8a5c070c2652"
                    }
                ],
                "valueQuantity": {
                    "value": 1001,
                    "unit": "ng/L"
                },
                "specimen": {
                    "reference": "urn:uuid:3c6e6f65-52b8-4238-8aa3-157f7e9bed1b"
                },
                "referenceRange": [
                    {
                        "low": {
                            "value": 170
                        },
                        "high": {
                            "value": 1100
                        }
                    }
                ]
            }
        },
        {
            "fullUrl": "urn:uuid:3756fb9a-800b-452d-8da0-36182f897fa2",
            "resource": {
                "resourceType": "Observation",
                "id": "3756fb9a-800b-452d-8da0-36182f897fa2",
                "meta": {
                    "profile": [
                        "https://fhir.hl7.org.uk/STU3/StructureDefinition/CareConnect-Observation-1"
                    ]
                },
                "status": "final",
                "code": {
                    "coding": [
                        {
                            "system": "http://read.info/readv2",
                            "code": "42UE.",
                            "display": "Plasma folate level"
                        }
                    ]
                },
                "subject": {
                    "reference": "urn:uuid:401e5433-1726-40c9-8333-ea09479a2d92"
                },
                "performer": [
                    {
                        "reference": "urn:uuid:1687bb70-f9db-4ab7-a559-313d412f4811"
                    },
                    {
                        "reference": "urn:uuid:e1a99d15-6138-4743-8af7-8a5c070c2652"
                    }
                ],
                "valueQuantity": {
                    "value": 0.8,
                    "unit": "ng/mL"
                },
                "specimen": {
                    "reference": "urn:uuid:3c6e6f65-52b8-4238-8aa3-157f7e9bed1b"
                },
                "referenceRange": [
                    {
                        "low": {
                            "value": 2.0,
                            "unit": "nmol/L"
                        },
                        "high": {
                            "value": 20.0,
                            "unit": "nmol/L"
                        }
                    }
                ]
            }
        }
    ]
}