{
  "resourceType": "Bundle",
  "id": "5a1ac3f0-7cfb-4845-b4db-f8fd0ce40691",
  "meta": {
    "lastUpdated": "2021-02-24T14:18:27.244+00:00",
    "profile": [
      "https://fhir.nhs.uk/STU3/StructureDefinition/ITK-Message-Bundle-1"
    ]
  },
  "identifier": {
    "system": "https://tools.ietf.org/html/rfc4122",
    "value": "524d0910-dd42-43c8-998f-f94a0de2fe2c"
  },
  "type": "message",
  "entry": [
    {
      "fullUrl": "urn:uuid:4ad99777-9863-4614-b929-16633f870f23",
      "resource": {
        "resourceType": "Patient",
        "id": "4ad99777-9863-4614-b929-16633f870f23",
        "meta": {
          "profile": [
            "https://fhir.hl7.org.uk/STU3/StructureDefinition/CareConnect-Patient-1"
          ]
        },
        "identifier": [
          {
            "system": "https://fhir.nhs.uk/Id/nhs-number",
            "value": "9435492908"
          }
        ],
        "name": [
          {
            "family": "AZIZ",
            "given": [
              "NISMA"
            ]
          }
        ],
        "gender": "female",
        "birthDate": "1945-07-30",
        "address": [
          {
            "line": [
              "FLAT1",
              "59 SANDTOFT ROAD",
              "DONCASTER"
            ],
            "postalCode": "DN9 1PJ"
          }
        ]
      }
    },
    {
      "fullUrl": "urn:uuid:314bcfae-c309-4413-abf6-a69cc8c48553",
      "resource": {
        "resourceType": "Practitioner",
        "id": "314bcfae-c309-4413-abf6-a69cc8c48553",
        "meta": {
          "profile": [
            "https://fhir.hl7.org.uk/STU3/StructureDefinition/CareConnect-Practitioner-1"
          ]
        },
        "identifier": [
          {
            "system": "https://fhir.nhs.uk/Id/sds-user-id",
            "value": "G9304284"
          }
        ],
        "name": [
          {
            "text": "DR A DOCTOR"
          }
        ]
      }
    },
    {
      "fullUrl": "urn:uuid:7b38873c-978b-461d-8100-a1534afe7103",
      "resource": {
        "resourceType": "Organization",
        "id": "7b38873c-978b-461d-8100-a1534afe7103",
        "meta": {
          "profile": [
            "https://fhir.hl7.org.uk/STU3/StructureDefinition/CareConnect-Organization-1"
          ]
        },
        "identifier": [
          {
            "system": "https://fhir.nhs.uk/Id/ods-organization-code",
            "value": "L99999"
          }
        ]
      }
    },
    {
      "fullUrl": "urn:uuid:254f1964-f0b7-45e6-ae86-ca1c06810705",
      "resource": {
        "resourceType": "Organization",
        "id": "254f1964-f0b7-45e6-ae86-ca1c06810705",
        "meta": {
          "profile": [
            "https://fhir.hl7.org.uk/STU3/StructureDefinition/CareConnect-Organization-1"
          ]
        },
        "type": [
          {
            "coding": [
              {
                "code": "dept",
                "display": "Haematology"
              }
            ]
          }
        ],
        "name": "ST JAMES'S UNIVERSITY HOSPITAL"
      }
    },
    {
      "fullUrl": "urn:uuid:8be835ba-540a-4a02-bf0c-0be947b98c82",
      "resource": {
        "resourceType": "ProcedureRequest",
        "id": "8be835ba-540a-4a02-bf0c-0be947b98c82",
        "meta": {
          "profile": [
            "https://fhir.hl7.org.uk/STU3/StructureDefinition/CareConnect-ProcedureRequest-1"
          ]
        },
        "status": "unknown",
        "intent": "order",
        "code": {
          "text": "unknown"
        },
        "subject": {
          "reference": "urn:uuid:4ad99777-9863-4614-b929-16633f870f23"
        },
        "requester": {
          "agent": {
            "reference": "urn:uuid:7b38873c-978b-461d-8100-a1534afe7103"
          }
        },
        "performer": {
          "reference": "urn:uuid:254f1964-f0b7-45e6-ae86-ca1c06810705"
        },
        "note": [
          {
            "text": "TIRED ALL THE TIME, LOW Hb"
          },
          {
            "text": "COELIAC"
          }
        ]
      }
    },
    {
      "fullUrl": "urn:uuid:1c2ffccb-186a-4193-a12e-f1b2c0bb6cee",
      "resource": {
        "resourceType": "DiagnosticReport",
        "id": "1c2ffccb-186a-4193-a12e-f1b2c0bb6cee",
        "meta": {
          "profile": [
            "https://fhir.hl7.org.uk/STU3/StructureDefinition/CareConnect-DiagnosticReport-1"
          ]
        },
        "identifier": [
          {
            "value": "15/CH000037K/200010191704"
          }
        ],
        "basedOn": [
          {
            "reference": "urn:uuid:8be835ba-540a-4a02-bf0c-0be947b98c82"
          }
        ],
        "status": "unknown",
        "code": {
          "coding": [
            {
              "system": "http://snomed.info/sct",
              "code": "721981007",
              "display": "Diagnostic studies report"
            }
          ]
        },
        "subject": {
          "reference": "urn:uuid:4ad99777-9863-4614-b929-16633f870f23"
        },
        "issued": "2010-02-25T15:41:00.000+00:00",
        "performer": [
          {
            "actor": {
              "reference": "urn:uuid:254f1964-f0b7-45e6-ae86-ca1c06810705"
            }
          }
        ],
        "specimen": [
          {
            "reference": "urn:uuid:1cc2e06f-bbe8-47a0-854c-c3d0ddfb1354"
          }
        ],
        "result": [
          {
            "reference": "urn:uuid:0d124e8d-6447-44e8-9d7d-9f5595b1a0c9"
          }
        ]
      }
    },
    {
      "fullUrl": "urn:uuid:1cc2e06f-bbe8-47a0-854c-c3d0ddfb1354",
      "resource": {
        "resourceType": "Specimen",
        "id": "1cc2e06f-bbe8-47a0-854c-c3d0ddfb1354",
        "meta": {
          "profile": [
            "https://fhir.hl7.org.uk/STU3/StructureDefinition/CareConnect-Specimen-1"
          ]
        },
        "accessionIdentifier": {
          "system": "http://lab.acme.org/specimens/2011",
          "value": "CH000037KA"
        },
        "type": {
          "coding": [
            {
              "system": "http://snomed.info/sct",
              "code": "T016",
              "display": "VENOUS BLOOD"
            }
          ]
        },
        "subject": {
          "reference": "urn:uuid:4ad99777-9863-4614-b929-16633f870f23"
        },
        "receivedTime": "2010-02-24T15:41:00+00:00",
        "collection": {
          "collectedDateTime": "2010-02-23T15:41:00+00:00"
        }
      }
    },
    {
      "fullUrl": "urn:uuid:0d124e8d-6447-44e8-9d7d-9f5595b1a0c9",
      "resource": {
        "resourceType": "Observation",
        "id": "0d124e8d-6447-44e8-9d7d-9f5595b1a0c9",
        "meta": {
          "profile": [
            "https://fhir.hl7.org.uk/STU3/StructureDefinition/CareConnect-Observation-1"
          ]
        },
        "status": "final",
        "code": {
          "coding": [
            {
              "display": "B12/FOLATE"
            }
          ]
        },
        "subject": {
          "reference": "urn:uuid:4ad99777-9863-4614-b929-16633f870f23"
        },
        "performer": [
          {
            "reference": "urn:uuid:254f1964-f0b7-45e6-ae86-ca1c06810705"
          }
        ],
        "comment": "Results repeated Low plasma Folate",
        "specimen": {
          "reference": "urn:uuid:1cc2e06f-bbe8-47a0-854c-c3d0ddfb1354"
        },
        "related": [
          {
            "type": "has-member",
            "target": {
              "reference": "urn:uuid:3b383fc0-f731-426e-94da-177cd70e7940"
            }
          },
          {
            "type": "has-member",
            "target": {
              "reference": "urn:uuid:1c0d099e-b5be-4d93-839d-131d27d8761b"
            }
          }
        ]
      }
    },
    {
      "fullUrl": "urn:uuid:3b383fc0-f731-426e-94da-177cd70e7940",
      "resource": {
        "resourceType": "Observation",
        "id": "3b383fc0-f731-426e-94da-177cd70e7940",
        "meta": {
          "profile": [
            "https://fhir.hl7.org.uk/STU3/StructureDefinition/CareConnect-Observation-1"
          ]
        },
        "status": "final",
        "code": {
          "coding": [
            {
              "system": "http://read.info/readv2",
              "code": "42T..",
              "display": "Serum vitamin B12"
            }
          ]
        },
        "subject": {
          "reference": "urn:uuid:4ad99777-9863-4614-b929-16633f870f23"
        },
        "performer": [
          {
            "reference": "urn:uuid:254f1964-f0b7-45e6-ae86-ca1c06810705"
          }
        ],
        "valueQuantity": {
          "value": 1001,
          "unit": "ng/L"
        },
        "specimen": {
          "reference": "urn:uuid:1cc2e06f-bbe8-47a0-854c-c3d0ddfb1354"
        },
        "referenceRange": [
          {
            "low": {
              "value": 170
            },
            "high": {
              "value": 1100
            }
          }
        ],
        "related": [
          {
            "target": {
              "reference": "urn:uuid:0d124e8d-6447-44e8-9d7d-9f5595b1a0c9"
            }
          }
        ]
      }
    },
    {
      "fullUrl": "urn:uuid:1c0d099e-b5be-4d93-839d-131d27d8761b",
      "resource": {
        "resourceType": "Observation",
        "id": "1c0d099e-b5be-4d93-839d-131d27d8761b",
        "meta": {
          "profile": [
            "https://fhir.hl7.org.uk/STU3/StructureDefinition/CareConnect-Observation-1"
          ]
        },
        "status": "final",
        "code": {
          "coding": [
            {
              "system": "http://read.info/readv2",
              "code": "42UE.",
              "display": "Plasma folate level"
            }
          ]
        },
        "subject": {
          "reference": "urn:uuid:4ad99777-9863-4614-b929-16633f870f23"
        },
        "performer": [
          {
            "reference": "urn:uuid:254f1964-f0b7-45e6-ae86-ca1c06810705"
          }
        ],
        "valueQuantity": {
          "value": 0.8,
          "unit": "ng/mL"
        },
        "specimen": {
          "reference": "urn:uuid:1cc2e06f-bbe8-47a0-854c-c3d0ddfb1354"
        },
        "referenceRange": [
          {
            "low": {
              "value": 2.0,
              "unit": "nmol/L"
            },
            "high": {
              "value": 20.0,
              "unit": "nmol/L"
            }
          }
        ],
        "related": [
          {
            "target": {
              "reference": "urn:uuid:0d124e8d-6447-44e8-9d7d-9f5595b1a0c9"
            }
          }
        ]
      }
    }
  ]
}
