{
  "resourceType": "Bundle",
  "id": "5a1ac3f0-7cfb-4845-b4db-f8fd0ce40691",
  "meta": {
    "lastUpdated": "2021-02-24T14:18:27.244+00:00",
    "profile": [
      "https://fhir.nhs.uk/STU3/StructureDefinition/ITK-Message-Bundle-1"
    ]
  },
  "identifier": {
    "system": "https://tools.ietf.org/html/rfc4122",
    "value": "524d0910-dd42-43c8-998f-f94a0de2fe2c"
  },
  "type": "message",
  "entry": [
    {
      "fullUrl": "urn:uuid:4ad99777-9863-4614-b929-16633f870f23",
      "resource": {
        "resourceType": "Patient",
        "id": "4ad99777-9863-4614-b929-16633f870f23",
        "identifier": [
          {
            "system": "https://fhir.nhs.uk/Id/nhs-number",
            "value": "9435492908"
          }
        ],
        "name": [
          {
            "family": "AZIZ",
            "given": [
              "NISMA"
            ]
          }
        ],
        "gender": "female",
        "birthDate": "1945-07-30",
        "address": [
          {
            "line": [
              "FLAT1",
              "59 SANDTOFT ROAD",
              "BELTON",
              "DONCASTER"
            ],
            "postalCode": "DN9 1PJ"
          }
        ]
      }
    },
    {
      "fullUrl": "urn:uuid:314bcfae-c309-4413-abf6-a69cc8c48553",
      "resource": {
        "resourceType": "Practitioner",
        "id": "314bcfae-c309-4413-abf6-a69cc8c48553",
        "identifier": [
          {
            "system": "https://fhir.nhs.uk/Id/sds-user-id",
            "value": "G3380314"
          }
        ],
        "name": [
          {
            "text": "SCOTT"
          }
        ]
      }
    },
    {
      "fullUrl": "urn:uuid:7b38873c-978b-461d-8100-a1534afe7103",
      "resource": {
        "resourceType": "Organization",
        "id": "7b38873c-978b-461d-8100-a1534afe7103",
        "name": "NORTH DOWN GP"
      }
    },
    {
      "fullUrl": "urn:uuid:254f1964-f0b7-45e6-ae86-ca1c06810705",
      "resource": {
        "resourceType": "Organization",
        "id": "254f1964-f0b7-45e6-ae86-ca1c06810705",
        "type": [
          {
            "coding": [
              {
                "code": "dept",
                "display": "Haematology"
              }
            ]
          }
        ],
        "name": "ST JAMES'S UNIVERSITY HOSPITAL"
      }
    },
    {
      "fullUrl": "urn:uuid:1cc2e06f-bbe8-47a0-854c-c3d0ddfb1354",
      "resource": {
        "resourceType": "Specimen",
        "id": "1cc2e06f-bbe8-47a0-854c-c3d0ddfb1354",
        "accessionIdentifier": {
          "system": "http://lab.acme.org/specimens/2011",
          "value": "CH000037KA"
        },
        "type": {
          "coding": [
            {
              "system": "http://snomed.info/sct",
              "display": "VENOUS BLOOD"
            }
          ]
        },
        "subject": {
          "reference": "urn:uuid:4ad99777-9863-4614-b929-16633f870f23"
        },
        "receivedTime": "2010-02-24T15:41:00+00:00",
        "collection": {
          "collectedDateTime": "2010-02-23T15:41:00+00:00"
        }
      }
    },
    {
      "fullUrl": "urn:uuid:0d124e8d-6447-44e8-9d7d-9f5595b1a0c9",
      "resource": {
        "resourceType": "Observation",
        "id": "0d124e8d-6447-44e8-9d7d-9f5595b1a0c9",
        "status": "final",
        "code": {
          "coding": [
            {
              "system": "http://loinc.org",
              "display": "B12/FOLATE"
            }
          ]
        },
        "comment": "Results repeated Low plasma Folate"
      }
    },
    {
      "fullUrl": "urn:uuid:3b383fc0-f731-426e-94da-177cd70e7940",
      "resource": {
        "resourceType": "Observation",
        "id": "3b383fc0-f731-426e-94da-177cd70e7940",
        "status": "final",
        "code": {
          "coding": [
            {
              "system": "http://loinc.org",
              "code": "42T..",
              "display": "Serum vitamin B12"
            }
          ]
        },
        "valueQuantity": {
          "value": 1001,
          "unit": "ng/L"
        },
        "referenceRange": [
          {
            "low": {
              "value": 170
            },
            "high": {
              "value": 1100
            }
          }
        ],
        "related": [
          {
            "target": {
              "reference": "0d124e8d-6447-44e8-9d7d-9f5595b1a0c9"
            }
          }
        ]
      }
    },
    {
      "fullUrl": "urn:uuid:1c0d099e-b5be-4d93-839d-131d27d8761b",
      "resource": {
        "resourceType": "Observation",
        "id": "1c0d099e-b5be-4d93-839d-131d27d8761b",
        "status": "final",
        "code": {
          "coding": [
            {
              "system": "http://loinc.org",
              "code": "42UE.",
              "display": "Plasma folate level"
            }
          ]
        },
        "valueQuantity": {
          "value": 0.8,
          "unit": "ng/mL"
        },
        "referenceRange": [
          {
            "low": {
              "value": 2.0
            },
            "high": {
              "value": 20.0
            }
          }
        ],
        "related": [
          {
            "target": {
              "reference": "0d124e8d-6447-44e8-9d7d-9f5595b1a0c9"
            }
          }
        ]
      }
    }
  ]
}
