{
    "resourceType": "Bundle",
    "id": "322d928f-ab51-4662-b6b1-8660cd8ad3aa",
    "meta": {
        "lastUpdated": "2021-04-22T16:02:47.872+02:00",
        "profile": [
            "https://fhir.nhs.uk/STU3/StructureDefinition/ITK-Message-Bundle-1"
        ]
    },
    "identifier": {
        "system": "https://tools.ietf.org/html/rfc4122",
        "value": "442722c1-7745-4868-a4e8-08414f346237"
    },
    "type": "message",
    "entry": [
        {
            "fullUrl": "urn:uuid:89035b0a-d074-44f3-ba95-d36f3fc2217e",
            "resource": {
                "resourceType": "MessageHeader",
                "id": "89035b0a-d074-44f3-ba95-d36f3fc2217e",
                "meta": {
                    "profile": [
                        "https://fhir.nhs.uk/STU3/StructureDefinition/ITK-MessageHeader-2"
                    ]
                },
                "extension": [
                    {
                        "url": "https://fhir.nhs.uk/STU3/StructureDefinition/Extension-ITK-MessageHandling-2",
                        "extension": [
                            {
                                "url": "BusAckRequested",
                                "valueBoolean": true
                            },
                            {
                                "url": "InfAckRequested",
                                "valueBoolean": true
                            },
                            {
                                "url": "RecipientType",
                                "valueCoding": {
                                    "system": "https://fhir.nhs.uk/STU3/CodeSystem/ITK-RecipientType-1",
                                    "code": "FA",
                                    "display": "For Action"
                                }
                            },
                            {
                                "url": "SenderReference",
                                "valueString": "None"
                            },
                            {
                                "url": "LocalExtension",
                                "valueString": "None"
                            }
                        ]
                    }
                ],
                "event": {
                    "system": "https://fhir.nhs.uk/STU3/CodeSystem/ITK-MessageEvent-2",
                    "code": "ITK012M",
                    "display": "ITK National Pathology"
                },
                "receiver": {
                    "reference": "urn:uuid:4c94ee1c-6496-4f09-936d-617414e4b770"
                },
                "sender": {
                    "reference": "urn:uuid:1f2cc4d9-7258-48e3-abd0-e5394d95bb81"
                },
                "timestamp": "2010-03-01T18:51:00.000+00:00",
                "source": {
                    "endpoint": "lab_results_mailbox"
                },
                "responsible": {
                    "reference": "urn:uuid:1f2cc4d9-7258-48e3-abd0-e5394d95bb81"
                },
                "focus": [
                    {
                        "reference": "urn:uuid:49e87825-caf2-4419-b9d2-ccce099f77c4"
                    }
                ]
            }
        },
        {
            "fullUrl": "urn:uuid:44528935-61be-4543-abce-9af5b84bb3c0",
            "resource": {
                "resourceType": "Patient",
                "id": "44528935-61be-4543-abce-9af5b84bb3c0",
                "meta": {
                    "profile": [
                        "https://fhir.hl7.org.uk/STU3/StructureDefinition/CareConnect-Patient-1"
                    ]
                },
                "identifier": [
                    {
                        "system": "https://fhir.nhs.uk/Id/nhs-number",
                        "value": "9435492908"
                    }
                ],
                "name": [
                    {
                        "family": "AZIZ",
                        "given": [
                            "NISMA"
                        ]
                    }
                ],
                "gender": "female",
                "birthDate": "1945-07-30",
                "address": [
                    {
                        "line": [
                            "FLAT1",
                            "59 SANDTOFT ROAD",
                            "DONCASTER"
                        ],
                        "postalCode": "DN9 1PJ"
                    }
                ]
            }
        },
        {
            "fullUrl": "urn:uuid:c71e2d7f-9831-4472-a56d-4ced3176ffe7",
            "resource": {
                "resourceType": "Practitioner",
                "id": "c71e2d7f-9831-4472-a56d-4ced3176ffe7",
                "meta": {
                    "profile": [
                        "https://fhir.hl7.org.uk/STU3/StructureDefinition/CareConnect-Practitioner-1"
                    ]
                },
                "identifier": [
                    {
                        "system": "https://fhir.nhs.uk/Id/sds-user-id",
                        "value": "G3380314"
                    }
                ],
                "name": [
                    {
                        "text": "SCOTT"
                    }
                ]
            }
        },
        {
            "fullUrl": "urn:uuid:4c94ee1c-6496-4f09-936d-617414e4b770",
            "resource": {
                "resourceType": "Organization",
                "id": "4c94ee1c-6496-4f09-936d-617414e4b770",
                "meta": {
                    "profile": [
                        "https://fhir.hl7.org.uk/STU3/StructureDefinition/CareConnect-Organization-1"
                    ]
                },
                "name": "NORTH DOWN GP"
            }
        },
        {
            "fullUrl": "urn:uuid:a428db1c-43e2-42da-bc1e-e24452b7532e",
            "resource": {
                "resourceType": "Practitioner",
                "id": "a428db1c-43e2-42da-bc1e-e24452b7532e",
                "meta": {
                    "profile": [
                        "https://fhir.hl7.org.uk/STU3/StructureDefinition/CareConnect-Practitioner-1"
                    ]
                }
            }
        },
        {
            "fullUrl": "urn:uuid:1f2cc4d9-7258-48e3-abd0-e5394d95bb81",
            "resource": {
                "resourceType": "Organization",
                "id": "1f2cc4d9-7258-48e3-abd0-e5394d95bb81",
                "meta": {
                    "profile": [
                        "https://fhir.hl7.org.uk/STU3/StructureDefinition/CareConnect-Organization-1"
                    ]
                },
                "type": [
                    {
                        "coding": [
                            {
                                "code": "dept",
                                "display": "Haematology"
                            }
                        ]
                    }
                ],
                "name": "ST JAMES'S UNIVERSITY HOSPITAL"
            }
        },
        {
            "fullUrl": "urn:uuid:0d601888-b390-49d9-8f40-16ebbd4d650f",
            "resource": {
                "resourceType": "ProcedureRequest",
                "id": "0d601888-b390-49d9-8f40-16ebbd4d650f",
                "meta": {
                    "profile": [
                        "https://fhir.hl7.org.uk/STU3/StructureDefinition/CareConnect-ProcedureRequest-1"
                    ]
                },
                "status": "unknown",
                "intent": "order",
                "code": {
                    "text": "unknown"
                },
                "subject": {
                    "reference": "urn:uuid:44528935-61be-4543-abce-9af5b84bb3c0"
                },
                "requester": {
                    "agent": {
                        "reference": "urn:uuid:c71e2d7f-9831-4472-a56d-4ced3176ffe7"
                    },
                    "onBehalfOf": {
                        "reference": "urn:uuid:4c94ee1c-6496-4f09-936d-617414e4b770"
                    }
                },
                "performer": {
                    "reference": "urn:uuid:a428db1c-43e2-42da-bc1e-e24452b7532e"
                },
                "note": [
                    {
                        "text": "TIRED ALL THE TIME, LOW Hb"
                    },
                    {
                        "text": "COELIAC"
                    }
                ]
            }
        },
        {
            "fullUrl": "urn:uuid:49e87825-caf2-4419-b9d2-ccce099f77c4",
            "resource": {
                "resourceType": "DiagnosticReport",
                "id": "49e87825-caf2-4419-b9d2-ccce099f77c4",
                "meta": {
                    "profile": [
                        "https://fhir.hl7.org.uk/STU3/StructureDefinition/CareConnect-DiagnosticReport-1"
                    ]
                },
                "identifier": [
                    {
                        "system": "https://tools.ietf.org/html/rfc4122",
                        "value": "15/CH000037K/200010191704"
                    }
                ],
                "basedOn": [
                    {
                        "reference": "urn:uuid:0d601888-b390-49d9-8f40-16ebbd4d650f"
                    }
                ],
                "status": "unknown",
                "code": {
                    "coding": [
                        {
                            "system": "http://snomed.info/sct",
                            "code": "721981007",
                            "display": "Diagnostic studies report"
                        }
                    ]
                },
                "subject": {
                    "reference": "urn:uuid:44528935-61be-4543-abce-9af5b84bb3c0"
                },
                "issued": "2010-02-25T15:41:00.000+00:00",
                "performer": [
                    {
                        "actor": {
                            "reference": "urn:uuid:1f2cc4d9-7258-48e3-abd0-e5394d95bb81"
                        }
                    },
                    {
                        "actor": {
                            "reference": "urn:uuid:a428db1c-43e2-42da-bc1e-e24452b7532e"
                        }
                    }
                ],
                "specimen": [
                    {
                        "reference": "urn:uuid:10dcd9b4-41b6-4431-9f77-27063545736c"
                    }
                ],
                "result": [
                    {
                        "reference": "urn:uuid:15591a3d-8a98-4525-86e1-d7ab9caa0da2"
                    }
                ]
            }
        },
        {
            "fullUrl": "urn:uuid:10dcd9b4-41b6-4431-9f77-27063545736c",
            "resource": {
                "resourceType": "Specimen",
                "id": "10dcd9b4-41b6-4431-9f77-27063545736c",
                "meta": {
                    "profile": [
                        "https://fhir.hl7.org.uk/STU3/StructureDefinition/CareConnect-Specimen-1"
                    ]
                },
                "accessionIdentifier": {
                    "system": "http://lab.acme.org/specimens/2011",
                    "value": "CH000037KA"
                },
                "type": {
                    "coding": [
                        {
                            "system": "http://snomed.info/sct",
                            "display": "VENOUS BLOOD"
                        }
                    ]
                },
                "subject": {
                    "reference": "urn:uuid:44528935-61be-4543-abce-9af5b84bb3c0"
                },
                "receivedTime": "2010-02-24T16:41:00+01:00",
                "collection": {
                    "collectedDateTime": "2010-02-23T16:41:00+01:00"
                }
            }
        },
        {
            "fullUrl": "urn:uuid:15591a3d-8a98-4525-86e1-d7ab9caa0da2",
            "resource": {
                "resourceType": "Observation",
                "id": "15591a3d-8a98-4525-86e1-d7ab9caa0da2",
                "meta": {
                    "profile": [
                        "https://fhir.hl7.org.uk/STU3/StructureDefinition/CareConnect-Observation-1"
                    ]
                },
                "status": "final",
                "code": {
                    "coding": [
                        {
                            "display": "B12/FOLATE"
                        }
                    ]
                },
                "subject": {
                    "reference": "urn:uuid:44528935-61be-4543-abce-9af5b84bb3c0"
                },
                "performer": [
                    {
                        "reference": "urn:uuid:1f2cc4d9-7258-48e3-abd0-e5394d95bb81"
                    },
                    {
                        "reference": "urn:uuid:a428db1c-43e2-42da-bc1e-e24452b7532e"
                    }
                ],
                "comment": "Results repeated Low plasma Folate",
                "specimen": {
                    "reference": "urn:uuid:10dcd9b4-41b6-4431-9f77-27063545736c"
                },
                "related": [
                    {
                        "type": "has-member",
                        "target": {
                            "reference": "urn:uuid:c542a46f-26e8-4db4-9415-15fb5f60d70b"
                        }
                    },
                    {
                        "type": "has-member",
                        "target": {
                            "reference": "urn:uuid:84dceb92-febd-4180-9872-ffb798477c01"
                        }
                    }
                ]
            }
        },
        {
            "fullUrl": "urn:uuid:c542a46f-26e8-4db4-9415-15fb5f60d70b",
            "resource": {
                "resourceType": "Observation",
                "id": "c542a46f-26e8-4db4-9415-15fb5f60d70b",
                "meta": {
                    "profile": [
                        "https://fhir.hl7.org.uk/STU3/StructureDefinition/CareConnect-Observation-1"
                    ]
                },
                "status": "final",
                "code": {
                    "coding": [
                        {
                            "system": "http://read.info/readv2",
                            "code": "42T..",
                            "display": "Serum vitamin B12"
                        }
                    ]
                },
                "subject": {
                    "reference": "urn:uuid:44528935-61be-4543-abce-9af5b84bb3c0"
                },
                "performer": [
                    {
                        "reference": "urn:uuid:1f2cc4d9-7258-48e3-abd0-e5394d95bb81"
                    },
                    {
                        "reference": "urn:uuid:a428db1c-43e2-42da-bc1e-e24452b7532e"
                    }
                ],
                "valueQuantity": {
                    "value": 1001,
                    "unit": "ng/L"
                },
                "specimen": {
                    "reference": "urn:uuid:10dcd9b4-41b6-4431-9f77-27063545736c"
                },
                "referenceRange": [
                    {
                        "low": {
                            "value": 170
                        },
                        "high": {
                            "value": 1100
                        }
                    }
                ],
                "related": [
                    {
                        "target": {
                            "reference": "urn:uuid:15591a3d-8a98-4525-86e1-d7ab9caa0da2"
                        }
                    }
                ]
            }
        },
        {
            "fullUrl": "urn:uuid:84dceb92-febd-4180-9872-ffb798477c01",
            "resource": {
                "resourceType": "Observation",
                "id": "84dceb92-febd-4180-9872-ffb798477c01",
                "meta": {
                    "profile": [
                        "https://fhir.hl7.org.uk/STU3/StructureDefinition/CareConnect-Observation-1"
                    ]
                },
                "status": "final",
                "code": {
                    "coding": [
                        {
                            "system": "http://read.info/readv2",
                            "code": "42UE.",
                            "display": "Plasma folate level"
                        }
                    ]
                },
                "subject": {
                    "reference": "urn:uuid:44528935-61be-4543-abce-9af5b84bb3c0"
                },
                "performer": [
                    {
                        "reference": "urn:uuid:1f2cc4d9-7258-48e3-abd0-e5394d95bb81"
                    },
                    {
                        "reference": "urn:uuid:a428db1c-43e2-42da-bc1e-e24452b7532e"
                    }
                ],
                "valueQuantity": {
                    "value": 0.8,
                    "unit": "ng/mL"
                },
                "specimen": {
                    "reference": "urn:uuid:10dcd9b4-41b6-4431-9f77-27063545736c"
                },
                "referenceRange": [
                    {
                        "low": {
                            "value": 2.0
                        },
                        "high": {
                            "value": 20.0
                        }
                    }
                ],
                "related": [
                    {
                        "target": {
                            "reference": "urn:uuid:15591a3d-8a98-4525-86e1-d7ab9caa0da2"
                        }
                    }
                ]
            }
        }
    ]
}