{
    "resourceType": "Bundle",
    "id": "7ffd97b6-7d83-43e4-834a-44505390cd6a",
    "meta": {
        "lastUpdated": "2021-06-07T12:24:30.332+01:00",
        "profile": [ "https://fhir.nhs.uk/STU3/StructureDefinition/ITK-Message-Bundle-1" ]
    },
    "identifier": {
        "system": "https://tools.ietf.org/html/rfc4122",
        "value": "4e54ccf5-8d53-4b83-bcf3-220cde569801"
    },
    "type": "message",
    "entry": [ {
        "fullUrl": "urn:uuid:cf946daa-b032-4926-ace5-a2cf84351307",
        "resource": {
            "resourceType": "MessageHeader",
            "id": "cf946daa-b032-4926-ace5-a2cf84351307",
            "meta": {
                "profile": [ "https://fhir.nhs.uk/STU3/StructureDefinition/ITK-MessageHeader-2" ]
            },
            "extension": [ {
                "url": "https://fhir.nhs.uk/STU3/StructureDefinition/Extension-ITK-MessageHandling-2",
                "extension": [ {
                    "url": "BusAckRequested",
                    "valueBoolean": true
                }, {
                    "url": "InfAckRequested",
                    "valueBoolean": true
                }, {
                    "url": "RecipientType",
                    "valueCoding": {
                        "system": "https://fhir.nhs.uk/STU3/CodeSystem/ITK-RecipientType-1",
                        "code": "FA",
                        "display": "For Action"
                    }
                }, {
                    "url": "SenderReference",
                    "valueString": "None"
                }, {
                    "url": "LocalExtension",
                    "valueString": "None"
                } ]
            } ],
            "event": {
                "system": "https://fhir.nhs.uk/STU3/CodeSystem/ITK-MessageEvent-2",
                "code": "ITK012M",
                "display": "ITK National Pathology"
            },
            "receiver": {
                "reference": "urn:uuid:876594ce-5b93-45d3-a0bd-770d81fc1054"
            },
            "sender": {
                "reference": "urn:uuid:870f332c-265a-4be4-be0c-800bf6fbe843"
            },
            "timestamp": "2010-03-01T17:51:00.000+00:00",
            "source": {
                "endpoint": "lab_results_mailbox"
            },
            "responsible": {
                "reference": "urn:uuid:870f332c-265a-4be4-be0c-800bf6fbe843"
            },
            "focus": [ {
                "reference": "urn:uuid:900fea4b-ea11-49e5-bb49-14c3612de52e"
            } ]
        }
    }, {
        "fullUrl": "urn:uuid:26e1421a-9a48-4c58-bb2a-005a1bf5e9c7",
        "resource": {
            "resourceType": "Patient",
            "id": "26e1421a-9a48-4c58-bb2a-005a1bf5e9c7",
            "meta": {
                "profile": [ "https://fhir.hl7.org.uk/STU3/StructureDefinition/CareConnect-Patient-1" ]
            },
            "identifier": [ {
                "extension": [ {
                    "url": "https://fhir.hl7.org.uk/STU3/StructureDefinition/Extension-CareConnect-NHSNumberVerificationStatus-1",
                    "valueCodeableConcept": {
                        "coding": [ {
                            "system": "https://fhir.hl7.org.uk/STU3/CodeSystem/CareConnect-NHSNumberVerificationStatus-1",
                            "code": "01",
                            "display": "Number present and verified"
                        } ]
                    }
                } ],
                "system": "https://fhir.nhs.uk/Id/nhs-number",
                "value": "9435492908"
            } ],
            "name": [ {
                "use": "official",
                "family": "AZIZ",
                "given": [ "NISMA" ]
            } ],
            "gender": "female",
            "birthDate": "1945-07-30",
            "address": [ {
                "line": [ "FLAT1", "59 SANDTOFT ROAD", "DONCASTER" ],
                "postalCode": "DN9 1PJ"
            } ]
        }
    }, {
        "fullUrl": "urn:uuid:aafcfdda-6ae8-484c-95e1-328fadc2f7b9",
        "resource": {
            "resourceType": "Practitioner",
            "id": "aafcfdda-6ae8-484c-95e1-328fadc2f7b9",
            "meta": {
                "profile": [ "https://fhir.hl7.org.uk/STU3/StructureDefinition/CareConnect-Practitioner-1" ]
            },
            "identifier": [ {
                "value": "G3380314"
            } ],
            "name": [ {
                "text": "SCOTT"
            } ]
        }
    }, {
        "fullUrl": "urn:uuid:876594ce-5b93-45d3-a0bd-770d81fc1054",
        "resource": {
            "resourceType": "Organization",
            "id": "876594ce-5b93-45d3-a0bd-770d81fc1054",
            "meta": {
                "profile": [ "https://fhir.hl7.org.uk/STU3/StructureDefinition/CareConnect-Organization-1" ]
            },
            "name": "NORTH DOWN GP"
        }
    }, {
        "fullUrl": "urn:uuid:38f279f8-3311-46f3-9dfc-cfe126519bd3",
        "resource": {
            "resourceType": "Practitioner",
            "id": "38f279f8-3311-46f3-9dfc-cfe126519bd3",
            "meta": {
                "profile": [ "https://fhir.hl7.org.uk/STU3/StructureDefinition/CareConnect-Practitioner-1" ]
            }
        }
    }, {
        "fullUrl": "urn:uuid:870f332c-265a-4be4-be0c-800bf6fbe843",
        "resource": {
            "resourceType": "Organization",
            "id": "870f332c-265a-4be4-be0c-800bf6fbe843",
            "meta": {
                "profile": [ "https://fhir.hl7.org.uk/STU3/StructureDefinition/CareConnect-Organization-1" ]
            },
            "type": [ {
                "coding": [ {
                    "code": "dept",
                    "display": "Haematology"
                } ]
            } ],
            "name": "ST JAMES'S UNIVERSITY HOSPITAL"
        }
    }, {
        "fullUrl": "urn:uuid:423e9034-82e2-42df-8782-b5bc1e4d90d5",
        "resource": {
            "resourceType": "ProcedureRequest",
            "id": "423e9034-82e2-42df-8782-b5bc1e4d90d5",
            "meta": {
                "profile": [ "https://fhir.hl7.org.uk/STU3/StructureDefinition/CareConnect-ProcedureRequest-1" ]
            },
            "status": "unknown",
            "intent": "order",
            "code": {
                "coding": [ {
                    "system": "http://snomed.info/sct",
                    "code": "15220000",
                    "display": "Laboratory test (procedure)"
                } ]
            },
            "subject": {
                "reference": "urn:uuid:26e1421a-9a48-4c58-bb2a-005a1bf5e9c7"
            },
            "requester": {
                "agent": {
                    "reference": "urn:uuid:aafcfdda-6ae8-484c-95e1-328fadc2f7b9"
                },
                "onBehalfOf": {
                    "reference": "urn:uuid:876594ce-5b93-45d3-a0bd-770d81fc1054"
                }
            },
            "performer": {
                "reference": "urn:uuid:38f279f8-3311-46f3-9dfc-cfe126519bd3"
            },
            "note": [ {
                "text": "TIRED ALL THE TIME, LOW Hb"
            }, {
                "text": "COELIAC"
            } ]
        }
    }, {
        "fullUrl": "urn:uuid:900fea4b-ea11-49e5-bb49-14c3612de52e",
        "resource": {
            "resourceType": "DiagnosticReport",
            "id": "900fea4b-ea11-49e5-bb49-14c3612de52e",
            "meta": {
                "profile": [ "https://fhir.hl7.org.uk/STU3/StructureDefinition/CareConnect-DiagnosticReport-1" ]
            },
            "identifier": [ {
                "system": "https://tools.ietf.org/html/rfc4122",
                "value": "15/CH000037K/200010191704"
            } ],
            "basedOn": [ {
                "reference": "urn:uuid:423e9034-82e2-42df-8782-b5bc1e4d90d5"
            } ],
            "status": "unknown",
            "code": {
                "coding": [ {
                    "system": "http://snomed.info/sct",
                    "code": "721981007",
                    "display": "Diagnostic studies report"
                } ]
            },
            "subject": {
                "reference": "urn:uuid:26e1421a-9a48-4c58-bb2a-005a1bf5e9c7"
            },
            "issued": "2010-02-25T15:41:00.000+00:00",
            "performer": [ {
                "actor": {
                    "reference": "urn:uuid:870f332c-265a-4be4-be0c-800bf6fbe843"
                }
            }, {
                "actor": {
                    "reference": "urn:uuid:38f279f8-3311-46f3-9dfc-cfe126519bd3"
                }
            } ],
            "specimen": [ {
                "reference": "urn:uuid:40eb88b1-c172-4755-8c59-463fc50ee9e7"
            } ],
            "result": [ {
                "reference": "urn:uuid:6a51a047-624f-4203-bdd0-2d7fd9465ed0"
            } ]
        }
    }, {
        "fullUrl": "urn:uuid:40eb88b1-c172-4755-8c59-463fc50ee9e7",
        "resource": {
            "resourceType": "Specimen",
            "id": "40eb88b1-c172-4755-8c59-463fc50ee9e7",
            "meta": {
                "profile": [ "https://fhir.hl7.org.uk/STU3/StructureDefinition/CareConnect-Specimen-1" ]
            },
            "accessionIdentifier": {
                "value": "CH000037KA"
            },
            "type": {
                "coding": [ {
                    "system": "http://snomed.info/sct",
                    "display": "VENOUS BLOOD"
                } ]
            },
            "subject": {
                "reference": "urn:uuid:26e1421a-9a48-4c58-bb2a-005a1bf5e9c7"
            },
            "receivedTime": "2010-02-24T15:41:00+00:00",
            "collection": {
                "collectedDateTime": "2010-02-23T15:41:00+00:00"
            }
        }
    }, {
        "fullUrl": "urn:uuid:6a51a047-624f-4203-bdd0-2d7fd9465ed0",
        "resource": {
            "resourceType": "Observation",
            "id": "6a51a047-624f-4203-bdd0-2d7fd9465ed0",
            "meta": {
                "profile": [ "https://fhir.hl7.org.uk/STU3/StructureDefinition/CareConnect-Observation-1" ]
            },
            "status": "final",
            "code": {
                "coding": [ {
                    "display": "B12/FOLATE"
                } ]
            },
            "subject": {
                "reference": "urn:uuid:26e1421a-9a48-4c58-bb2a-005a1bf5e9c7"
            },
            "performer": [ {
                "reference": "urn:uuid:870f332c-265a-4be4-be0c-800bf6fbe843"
            }, {
                "reference": "urn:uuid:38f279f8-3311-46f3-9dfc-cfe126519bd3"
            } ],
            "comment": "Results repeated Low plasma Folate",
            "specimen": {
                "reference": "urn:uuid:40eb88b1-c172-4755-8c59-463fc50ee9e7"
            },
            "related": [ {
                "type": "has-member",
                "target": {
                    "reference": "urn:uuid:d57453b8-66f6-4425-a332-3c242fbf92c6"
                }
            }, {
                "type": "has-member",
                "target": {
                    "reference": "urn:uuid:cdb81e59-c8de-4732-9d72-681f969d6ac7"
                }
            } ]
        }
    }, {
        "fullUrl": "urn:uuid:d57453b8-66f6-4425-a332-3c242fbf92c6",
        "resource": {
            "resourceType": "Observation",
            "id": "d57453b8-66f6-4425-a332-3c242fbf92c6",
            "meta": {
                "profile": [ "https://fhir.hl7.org.uk/STU3/StructureDefinition/CareConnect-Observation-1" ]
            },
            "status": "final",
            "code": {
                "coding": [ {
                    "system": "http://read.info/readv2",
                    "code": "42T..",
                    "display": "Serum vitamin B12"
                } ]
            },
            "subject": {
                "reference": "urn:uuid:26e1421a-9a48-4c58-bb2a-005a1bf5e9c7"
            },
            "performer": [ {
                "reference": "urn:uuid:870f332c-265a-4be4-be0c-800bf6fbe843"
            }, {
                "reference": "urn:uuid:38f279f8-3311-46f3-9dfc-cfe126519bd3"
            } ],
            "valueQuantity": {
                "value": 1001,
                "unit": "ng/L"
            },
            "specimen": {
                "reference": "urn:uuid:40eb88b1-c172-4755-8c59-463fc50ee9e7"
            },
            "referenceRange": [ {
                "low": {
                    "value": 170
                },
                "high": {
                    "value": 1100
                }
            } ],
            "related": [ {
                "target": {
                    "reference": "urn:uuid:6a51a047-624f-4203-bdd0-2d7fd9465ed0"
                }
            } ]
        }
    }, {
        "fullUrl": "urn:uuid:cdb81e59-c8de-4732-9d72-681f969d6ac7",
        "resource": {
            "resourceType": "Observation",
            "id": "cdb81e59-c8de-4732-9d72-681f969d6ac7",
            "meta": {
                "profile": [ "https://fhir.hl7.org.uk/STU3/StructureDefinition/CareConnect-Observation-1" ]
            },
            "status": "final",
            "code": {
                "coding": [ {
                    "system": "http://read.info/readv2",
                    "code": "42UE.",
                    "display": "Plasma folate level"
                } ]
            },
            "subject": {
                "reference": "urn:uuid:26e1421a-9a48-4c58-bb2a-005a1bf5e9c7"
            },
            "performer": [ {
                "reference": "urn:uuid:870f332c-265a-4be4-be0c-800bf6fbe843"
            }, {
                "reference": "urn:uuid:38f279f8-3311-46f3-9dfc-cfe126519bd3"
            } ],
            "valueQuantity": {
                "value": 0.8,
                "unit": "ng/mL"
            },
            "specimen": {
                "reference": "urn:uuid:40eb88b1-c172-4755-8c59-463fc50ee9e7"
            },
            "referenceRange": [ {
                "low": {
                    "value": 2.0
                },
                "high": {
                    "value": 20.0
                }
            } ],
            "related": [ {
                "target": {
                    "reference": "urn:uuid:6a51a047-624f-4203-bdd0-2d7fd9465ed0"
                }
            } ]
        }
    } ]
}