{
    "resourceType": "Bundle",
    "id": "2e633435-dc97-4d0f-82eb-7bdd05b93893",
    "meta": {
        "lastUpdated": "2021-06-07T10:21:30.514+01:00",
        "profile": [
            "https://fhir.nhs.uk/STU3/StructureDefinition/ITK-Message-Bundle-1"
        ]
    },
    "identifier": {
        "system": "https://tools.ietf.org/html/rfc4122",
        "value": "bd6dde4b-3841-4e08-ab3d-0b288e5348fe"
    },
    "type": "message",
    "entry": [
        {
            "fullUrl": "urn:uuid:c7cbd5cb-e12a-460d-ab72-efa2562eacb1",
            "resource": {
                "resourceType": "MessageHeader",
                "id": "c7cbd5cb-e12a-460d-ab72-efa2562eacb1",
                "meta": {
                    "profile": [
                        "https://fhir.nhs.uk/STU3/StructureDefinition/ITK-MessageHeader-2"
                    ]
                },
                "extension": [
                    {
                        "url": "https://fhir.nhs.uk/STU3/StructureDefinition/Extension-ITK-MessageHandling-2",
                        "extension": [
                            {
                                "url": "BusAckRequested",
                                "valueBoolean": true
                            },
                            {
                                "url": "InfAckRequested",
                                "valueBoolean": true
                            },
                            {
                                "url": "RecipientType",
                                "valueCoding": {
                                    "system": "https://fhir.nhs.uk/STU3/CodeSystem/ITK-RecipientType-1",
                                    "code": "FA",
                                    "display": "For Action"
                                }
                            },
                            {
                                "url": "SenderReference",
                                "valueString": "None"
                            },
                            {
                                "url": "LocalExtension",
                                "valueString": "None"
                            }
                        ]
                    }
                ],
                "event": {
                    "system": "https://fhir.nhs.uk/STU3/CodeSystem/ITK-MessageEvent-2",
                    "code": "ITK012M",
                    "display": "ITK National Pathology"
                },
                "receiver": {
                    "reference": "urn:uuid:fbcbe8d7-cf4d-460c-a47a-1f89516bd6b7"
                },
                "sender": {
                    "reference": "urn:uuid:90811bdd-7d0a-4603-835e-668b7a43a7c3"
                },
                "timestamp": "2010-03-01T17:51:00.000+00:00",
                "source": {
                    "endpoint": "lab_results_mailbox"
                },
                "responsible": {
                    "reference": "urn:uuid:90811bdd-7d0a-4603-835e-668b7a43a7c3"
                },
                "focus": [
                    {
                        "reference": "urn:uuid:ff00fae6-b70e-4bbb-8883-cd97e5e07970"
                    }
                ]
            }
        },
        {
            "fullUrl": "urn:uuid:a882c56a-c980-48ef-ad4f-e7a81ba108da",
            "resource": {
                "resourceType": "Patient",
                "id": "a882c56a-c980-48ef-ad4f-e7a81ba108da",
                "meta": {
                    "profile": [
                        "https://fhir.hl7.org.uk/STU3/StructureDefinition/CareConnect-Patient-1"
                    ]
                },
                "identifier": [
                    {
                        "extension": [
                            {
                                "url": "https://fhir.hl7.org.uk/STU3/StructureDefinition/Extension-CareConnect-NHSNumberVerificationStatus-1",
                                "valueCodeableConcept": {
                                    "coding": [
                                        {
                                            "system": "https://fhir.hl7.org.uk/STU3/CodeSystem/CareConnect-NHSNumberVerificationStatus-1",
                                            "code": "01",
                                            "display": "Number present and verified"
                                        }
                                    ]
                                }
                            }
                        ],
                        "system": "https://fhir.nhs.uk/Id/nhs-number",
                        "value": "9435492908"
                    }
                ],
                "name": [
                    {
                        "use": "official",
                        "family": "AZIZ",
                        "given": [
                            "NISMA"
                        ]
                    }
                ],
                "gender": "female",
                "birthDate": "1945-07-30",
                "address": [
                    {
                        "line": [
                            "FLAT1",
                            "59 SANDTOFT ROAD",
                            "DONCASTER"
                        ],
                        "postalCode": "DN9 1PJ"
                    }
                ]
            }
        },
        {
            "fullUrl": "urn:uuid:4b4b6c51-02f3-4037-89c3-9bab3084a296",
            "resource": {
                "resourceType": "Practitioner",
                "id": "4b4b6c51-02f3-4037-89c3-9bab3084a296",
                "meta": {
                    "profile": [
                        "https://fhir.hl7.org.uk/STU3/StructureDefinition/CareConnect-Practitioner-1"
                    ]
                },
                "identifier": [
                    {
                        "system": "https://fhir.nhs.uk/Id/sds-user-id",
                        "value": "G3380314"
                    }
                ],
                "name": [
                    {
                        "text": "SCOTT"
                    }
                ]
            }
        },
        {
            "fullUrl": "urn:uuid:fbcbe8d7-cf4d-460c-a47a-1f89516bd6b7",
            "resource": {
                "resourceType": "Organization",
                "id": "fbcbe8d7-cf4d-460c-a47a-1f89516bd6b7",
                "meta": {
                    "profile": [
                        "https://fhir.hl7.org.uk/STU3/StructureDefinition/CareConnect-Organization-1"
                    ]
                },
                "name": "NORTH DOWN GP"
            }
        },
        {
            "fullUrl": "urn:uuid:ec2f4535-7d10-4c1a-8968-9b0bf0b4f9ef",
            "resource": {
                "resourceType": "Practitioner",
                "id": "ec2f4535-7d10-4c1a-8968-9b0bf0b4f9ef",
                "meta": {
                    "profile": [
                        "https://fhir.hl7.org.uk/STU3/StructureDefinition/CareConnect-Practitioner-1"
                    ]
                }
            }
        },
        {
            "fullUrl": "urn:uuid:90811bdd-7d0a-4603-835e-668b7a43a7c3",
            "resource": {
                "resourceType": "Organization",
                "id": "90811bdd-7d0a-4603-835e-668b7a43a7c3",
                "meta": {
                    "profile": [
                        "https://fhir.hl7.org.uk/STU3/StructureDefinition/CareConnect-Organization-1"
                    ]
                },
                "type": [
                    {
                        "coding": [
                            {
                                "code": "dept",
                                "display": "Haematology"
                            }
                        ]
                    }
                ],
                "name": "ST JAMES'S UNIVERSITY HOSPITAL"
            }
        },
        {
            "fullUrl": "urn:uuid:fec1e48e-dc48-485e-b7bc-cc9ef3710020",
            "resource": {
                "resourceType": "ProcedureRequest",
                "id": "fec1e48e-dc48-485e-b7bc-cc9ef3710020",
                "meta": {
                    "profile": [
                        "https://fhir.hl7.org.uk/STU3/StructureDefinition/CareConnect-ProcedureRequest-1"
                    ]
                },
                "status": "unknown",
                "intent": "order",
                "code": {
                    "text": "unknown"
                },
                "subject": {
                    "reference": "urn:uuid:a882c56a-c980-48ef-ad4f-e7a81ba108da"
                },
                "requester": {
                    "agent": {
                        "reference": "urn:uuid:4b4b6c51-02f3-4037-89c3-9bab3084a296"
                    },
                    "onBehalfOf": {
                        "reference": "urn:uuid:fbcbe8d7-cf4d-460c-a47a-1f89516bd6b7"
                    }
                },
                "performer": {
                    "reference": "urn:uuid:ec2f4535-7d10-4c1a-8968-9b0bf0b4f9ef"
                },
                "note": [
                    {
                        "text": "TIRED ALL THE TIME, LOW Hb"
                    },
                    {
                        "text": "COELIAC"
                    }
                ]
            }
        },
        {
            "fullUrl": "urn:uuid:ff00fae6-b70e-4bbb-8883-cd97e5e07970",
            "resource": {
                "resourceType": "DiagnosticReport",
                "id": "ff00fae6-b70e-4bbb-8883-cd97e5e07970",
                "meta": {
                    "profile": [
                        "https://fhir.hl7.org.uk/STU3/StructureDefinition/CareConnect-DiagnosticReport-1"
                    ]
                },
                "identifier": [
                    {
                        "system": "https://tools.ietf.org/html/rfc4122",
                        "value": "15/CH000037K/200010191704"
                    }
                ],
                "basedOn": [
                    {
                        "reference": "urn:uuid:fec1e48e-dc48-485e-b7bc-cc9ef3710020"
                    }
                ],
                "status": "unknown",
                "code": {
                    "coding": [
                        {
                            "system": "http://snomed.info/sct",
                            "code": "721981007",
                            "display": "Diagnostic studies report"
                        }
                    ]
                },
                "subject": {
                    "reference": "urn:uuid:a882c56a-c980-48ef-ad4f-e7a81ba108da"
                },
                "issued": "2010-02-25T15:41:00.000+00:00",
                "performer": [
                    {
                        "actor": {
                            "reference": "urn:uuid:90811bdd-7d0a-4603-835e-668b7a43a7c3"
                        }
                    },
                    {
                        "actor": {
                            "reference": "urn:uuid:ec2f4535-7d10-4c1a-8968-9b0bf0b4f9ef"
                        }
                    }
                ],
                "specimen": [
                    {
                        "reference": "urn:uuid:0e4d4d3d-4c7c-4cad-8252-e995dddd2686"
                    }
                ],
                "result": [
                    {
                        "reference": "urn:uuid:f190becd-010a-4929-8186-de0bd1f1414c"
                    }
                ]
            }
        },
        {
            "fullUrl": "urn:uuid:0e4d4d3d-4c7c-4cad-8252-e995dddd2686",
            "resource": {
                "resourceType": "Specimen",
                "id": "0e4d4d3d-4c7c-4cad-8252-e995dddd2686",
                "meta": {
                    "profile": [
                        "https://fhir.hl7.org.uk/STU3/StructureDefinition/CareConnect-Specimen-1"
                    ]
                },
                "accessionIdentifier": {
                    "system": "http://lab.acme.org/specimens/2011",
                    "value": "CH000037KA"
                },
                "type": {
                    "coding": [
                        {
                            "system": "http://snomed.info/sct",
                            "display": "VENOUS BLOOD"
                        }
                    ]
                },
                "subject": {
                    "reference": "urn:uuid:a882c56a-c980-48ef-ad4f-e7a81ba108da"
                },
                "receivedTime": "2010-02-24T15:41:00+00:00",
                "collection": {
                    "collectedDateTime": "2010-02-23T15:41:00+00:00"
                }
            }
        },
        {
            "fullUrl": "urn:uuid:f190becd-010a-4929-8186-de0bd1f1414c",
            "resource": {
                "resourceType": "Observation",
                "id": "f190becd-010a-4929-8186-de0bd1f1414c",
                "meta": {
                    "profile": [
                        "https://fhir.hl7.org.uk/STU3/StructureDefinition/CareConnect-Observation-1"
                    ]
                },
                "status": "final",
                "code": {
                    "coding": [
                        {
                            "display": "B12/FOLATE"
                        }
                    ]
                },
                "subject": {
                    "reference": "urn:uuid:a882c56a-c980-48ef-ad4f-e7a81ba108da"
                },
                "performer": [
                    {
                        "reference": "urn:uuid:90811bdd-7d0a-4603-835e-668b7a43a7c3"
                    },
                    {
                        "reference": "urn:uuid:ec2f4535-7d10-4c1a-8968-9b0bf0b4f9ef"
                    }
                ],
                "comment": "Results repeated Low plasma Folate",
                "specimen": {
                    "reference": "urn:uuid:0e4d4d3d-4c7c-4cad-8252-e995dddd2686"
                },
                "related": [
                    {
                        "type": "has-member",
                        "target": {
                            "reference": "urn:uuid:1f4168df-de24-419d-80ee-28533e459202"
                        }
                    },
                    {
                        "type": "has-member",
                        "target": {
                            "reference": "urn:uuid:3151feae-df0e-4920-86e4-498a21e36aa0"
                        }
                    }
                ]
            }
        },
        {
            "fullUrl": "urn:uuid:1f4168df-de24-419d-80ee-28533e459202",
            "resource": {
                "resourceType": "Observation",
                "id": "1f4168df-de24-419d-80ee-28533e459202",
                "meta": {
                    "profile": [
                        "https://fhir.hl7.org.uk/STU3/StructureDefinition/CareConnect-Observation-1"
                    ]
                },
                "status": "final",
                "code": {
                    "coding": [
                        {
                            "system": "http://read.info/readv2",
                            "code": "42T..",
                            "display": "Serum vitamin B12"
                        }
                    ]
                },
                "subject": {
                    "reference": "urn:uuid:a882c56a-c980-48ef-ad4f-e7a81ba108da"
                },
                "performer": [
                    {
                        "reference": "urn:uuid:90811bdd-7d0a-4603-835e-668b7a43a7c3"
                    },
                    {
                        "reference": "urn:uuid:ec2f4535-7d10-4c1a-8968-9b0bf0b4f9ef"
                    }
                ],
                "valueQuantity": {
                    "value": 1001,
                    "unit": "ng/L"
                },
                "specimen": {
                    "reference": "urn:uuid:0e4d4d3d-4c7c-4cad-8252-e995dddd2686"
                },
                "referenceRange": [
                    {
                        "low": {
                            "value": 170
                        },
                        "high": {
                            "value": 1100
                        }
                    }
                ],
                "related": [
                    {
                        "target": {
                            "reference": "urn:uuid:f190becd-010a-4929-8186-de0bd1f1414c"
                        }
                    }
                ]
            }
        },
        {
            "fullUrl": "urn:uuid:3151feae-df0e-4920-86e4-498a21e36aa0",
            "resource": {
                "resourceType": "Observation",
                "id": "3151feae-df0e-4920-86e4-498a21e36aa0",
                "meta": {
                    "profile": [
                        "https://fhir.hl7.org.uk/STU3/StructureDefinition/CareConnect-Observation-1"
                    ]
                },
                "status": "final",
                "code": {
                    "coding": [
                        {
                            "system": "http://read.info/readv2",
                            "code": "42UE.",
                            "display": "Plasma folate level"
                        }
                    ]
                },
                "subject": {
                    "reference": "urn:uuid:a882c56a-c980-48ef-ad4f-e7a81ba108da"
                },
                "performer": [
                    {
                        "reference": "urn:uuid:90811bdd-7d0a-4603-835e-668b7a43a7c3"
                    },
                    {
                        "reference": "urn:uuid:ec2f4535-7d10-4c1a-8968-9b0bf0b4f9ef"
                    }
                ],
                "valueQuantity": {
                    "value": 0.8,
                    "unit": "ng/mL"
                },
                "specimen": {
                    "reference": "urn:uuid:0e4d4d3d-4c7c-4cad-8252-e995dddd2686"
                },
                "referenceRange": [
                    {
                        "low": {
                            "value": 2.0
                        },
                        "high": {
                            "value": 20.0
                        }
                    }
                ],
                "related": [
                    {
                        "target": {
                            "reference": "urn:uuid:f190becd-010a-4929-8186-de0bd1f1414c"
                        }
                    }
                ]
            }
        }
    ]
}