{
    "resourceType": "Bundle",
    "id": "6830dc0e-a32e-45a3-9c96-0692e093ca5d",
    "meta": {
        "lastUpdated": "2021-06-07T12:23:39.931+01:00",
        "profile": [ "https://fhir.nhs.uk/STU3/StructureDefinition/ITK-Message-Bundle-1" ]
    },
    "identifier": {
        "system": "https://tools.ietf.org/html/rfc4122",
        "value": "8e1a3d4f-d26a-4606-9666-8fdb52a9036c"
    },
    "type": "message",
    "entry": [ {
        "fullUrl": "urn:uuid:f7111d71-6184-465a-87e8-9cb581fd6136",
        "resource": {
            "resourceType": "MessageHeader",
            "id": "f7111d71-6184-465a-87e8-9cb581fd6136",
            "meta": {
                "profile": [ "https://fhir.nhs.uk/STU3/StructureDefinition/ITK-MessageHeader-2" ]
            },
            "extension": [ {
                "url": "https://fhir.nhs.uk/STU3/StructureDefinition/Extension-ITK-MessageHandling-2",
                "extension": [ {
                    "url": "BusAckRequested",
                    "valueBoolean": true
                }, {
                    "url": "InfAckRequested",
                    "valueBoolean": true
                }, {
                    "url": "RecipientType",
                    "valueCoding": {
                        "system": "https://fhir.nhs.uk/STU3/CodeSystem/ITK-RecipientType-1",
                        "code": "FA",
                        "display": "For Action"
                    }
                }, {
                    "url": "SenderReference",
                    "valueString": "None"
                }, {
                    "url": "LocalExtension",
                    "valueString": "None"
                } ]
            } ],
            "event": {
                "system": "https://fhir.nhs.uk/STU3/CodeSystem/ITK-MessageEvent-2",
                "code": "ITK012M",
                "display": "ITK National Pathology"
            },
            "receiver": {
                "reference": "urn:uuid:39080955-69a0-48ac-80a0-2a2e23ffa0cb"
            },
            "sender": {
                "reference": "urn:uuid:5c57ffd8-3c7f-48c5-8da3-3ed1701d46fb"
            },
            "timestamp": "2010-03-01T17:51:00.000+00:00",
            "source": {
                "endpoint": "lab_results_mailbox"
            },
            "responsible": {
                "reference": "urn:uuid:5c57ffd8-3c7f-48c5-8da3-3ed1701d46fb"
            },
            "focus": [ {
                "reference": "urn:uuid:9181b424-67ed-4414-80c7-14f8090dc884"
            } ]
        }
    }, {
        "fullUrl": "urn:uuid:bc8293ee-4fa7-4fac-bcd4-ec1281554d5b",
        "resource": {
            "resourceType": "Patient",
            "id": "bc8293ee-4fa7-4fac-bcd4-ec1281554d5b",
            "meta": {
                "profile": [ "https://fhir.hl7.org.uk/STU3/StructureDefinition/CareConnect-Patient-1" ]
            },
            "identifier": [ {
                "extension": [ {
                    "url": "https://fhir.hl7.org.uk/STU3/StructureDefinition/Extension-CareConnect-NHSNumberVerificationStatus-1",
                    "valueCodeableConcept": {
                        "coding": [ {
                            "system": "https://fhir.hl7.org.uk/STU3/CodeSystem/CareConnect-NHSNumberVerificationStatus-1",
                            "code": "01",
                            "display": "Number present and verified"
                        } ]
                    }
                } ],
                "system": "https://fhir.nhs.uk/Id/nhs-number",
                "value": "9435492908"
            } ],
            "name": [ {
                "use": "official",
                "family": "AZIZ",
                "given": [ "NISMA" ]
            } ],
            "gender": "female",
            "birthDate": "1945-07-30",
            "address": [ {
                "line": [ "FLAT1", "59 SANDTOFT ROAD", "DONCASTER" ],
                "postalCode": "DN9 1PJ"
            } ]
        }
    }, {
        "fullUrl": "urn:uuid:2042681c-e740-4bf5-951c-536db5e6cac2",
        "resource": {
            "resourceType": "Practitioner",
            "id": "2042681c-e740-4bf5-951c-536db5e6cac2",
            "meta": {
                "profile": [ "https://fhir.hl7.org.uk/STU3/StructureDefinition/CareConnect-Practitioner-1" ]
            },
            "identifier": [ {
                "value": "G9304284"
            } ],
            "name": [ {
                "text": "DR A DOCTOR"
            } ]
        }
    }, {
        "fullUrl": "urn:uuid:39080955-69a0-48ac-80a0-2a2e23ffa0cb",
        "resource": {
            "resourceType": "Organization",
            "id": "39080955-69a0-48ac-80a0-2a2e23ffa0cb",
            "meta": {
                "profile": [ "https://fhir.hl7.org.uk/STU3/StructureDefinition/CareConnect-Organization-1" ]
            },
            "identifier": [ {
                "system": "https://fhir.nhs.uk/Id/ods-organization-code",
                "value": "L99999"
            } ]
        }
    }, {
        "fullUrl": "urn:uuid:9adba015-1455-4f69-861f-b09857961369",
        "resource": {
            "resourceType": "Practitioner",
            "id": "9adba015-1455-4f69-861f-b09857961369",
            "meta": {
                "profile": [ "https://fhir.hl7.org.uk/STU3/StructureDefinition/CareConnect-Practitioner-1" ]
            }
        }
    }, {
        "fullUrl": "urn:uuid:5c57ffd8-3c7f-48c5-8da3-3ed1701d46fb",
        "resource": {
            "resourceType": "Organization",
            "id": "5c57ffd8-3c7f-48c5-8da3-3ed1701d46fb",
            "meta": {
                "profile": [ "https://fhir.hl7.org.uk/STU3/StructureDefinition/CareConnect-Organization-1" ]
            },
            "type": [ {
                "coding": [ {
                    "code": "dept",
                    "display": "Haematology"
                } ]
            } ],
            "name": "ST JAMES'S UNIVERSITY HOSPITAL"
        }
    }, {
        "fullUrl": "urn:uuid:b2b27a27-3cda-4cb3-86a0-c3af4f6acdd5",
        "resource": {
            "resourceType": "ProcedureRequest",
            "id": "b2b27a27-3cda-4cb3-86a0-c3af4f6acdd5",
            "meta": {
                "profile": [ "https://fhir.hl7.org.uk/STU3/StructureDefinition/CareConnect-ProcedureRequest-1" ]
            },
            "status": "unknown",
            "intent": "order",
            "code": {
                "coding": [ {
                    "system": "http://snomed.info/sct",
                    "code": "15220000",
                    "display": "Laboratory test (procedure)"
                } ]
            },
            "subject": {
                "reference": "urn:uuid:bc8293ee-4fa7-4fac-bcd4-ec1281554d5b"
            },
            "requester": {
                "agent": {
                    "reference": "urn:uuid:2042681c-e740-4bf5-951c-536db5e6cac2"
                },
                "onBehalfOf": {
                    "reference": "urn:uuid:39080955-69a0-48ac-80a0-2a2e23ffa0cb"
                }
            },
            "performer": {
                "reference": "urn:uuid:9adba015-1455-4f69-861f-b09857961369"
            },
            "note": [ {
                "text": "TIRED ALL THE TIME, LOW Hb"
            }, {
                "text": "COELIAC"
            } ]
        }
    }, {
        "fullUrl": "urn:uuid:9181b424-67ed-4414-80c7-14f8090dc884",
        "resource": {
            "resourceType": "DiagnosticReport",
            "id": "9181b424-67ed-4414-80c7-14f8090dc884",
            "meta": {
                "profile": [ "https://fhir.hl7.org.uk/STU3/StructureDefinition/CareConnect-DiagnosticReport-1" ]
            },
            "identifier": [ {
                "system": "https://tools.ietf.org/html/rfc4122",
                "value": "15/CH000037K/200010191704"
            } ],
            "basedOn": [ {
                "reference": "urn:uuid:b2b27a27-3cda-4cb3-86a0-c3af4f6acdd5"
            } ],
            "status": "unknown",
            "code": {
                "coding": [ {
                    "system": "http://snomed.info/sct",
                    "code": "721981007",
                    "display": "Diagnostic studies report"
                } ]
            },
            "subject": {
                "reference": "urn:uuid:bc8293ee-4fa7-4fac-bcd4-ec1281554d5b"
            },
            "issued": "2010-02-25T15:41:00.000+00:00",
            "performer": [ {
                "actor": {
                    "reference": "urn:uuid:5c57ffd8-3c7f-48c5-8da3-3ed1701d46fb"
                }
            }, {
                "actor": {
                    "reference": "urn:uuid:9adba015-1455-4f69-861f-b09857961369"
                }
            } ],
            "specimen": [ {
                "reference": "urn:uuid:2682acbe-a3f6-4024-a3b0-9e285f3e247f"
            } ],
            "result": [ {
                "reference": "urn:uuid:b0069e91-e18e-4674-8668-49dbb88e619d"
            } ]
        }
    }, {
        "fullUrl": "urn:uuid:2682acbe-a3f6-4024-a3b0-9e285f3e247f",
        "resource": {
            "resourceType": "Specimen",
            "id": "2682acbe-a3f6-4024-a3b0-9e285f3e247f",
            "meta": {
                "profile": [ "https://fhir.hl7.org.uk/STU3/StructureDefinition/CareConnect-Specimen-1" ]
            },
            "accessionIdentifier": {
                "value": "CH000037KA"
            },
            "type": {
                "coding": [ {
                    "system": "http://snomed.info/sct",
                    "code": "T016",
                    "display": "VENOUS BLOOD"
                } ]
            },
            "subject": {
                "reference": "urn:uuid:bc8293ee-4fa7-4fac-bcd4-ec1281554d5b"
            },
            "receivedTime": "2010-02-24T15:41:00+00:00",
            "collection": {
                "collectedDateTime": "2010-02-23T15:41:00+00:00"
            }
        }
    }, {
        "fullUrl": "urn:uuid:b0069e91-e18e-4674-8668-49dbb88e619d",
        "resource": {
            "resourceType": "Observation",
            "id": "b0069e91-e18e-4674-8668-49dbb88e619d",
            "meta": {
                "profile": [ "https://fhir.hl7.org.uk/STU3/StructureDefinition/CareConnect-Observation-1" ]
            },
            "status": "final",
            "code": {
                "coding": [ {
                    "display": "B12/FOLATE"
                } ]
            },
            "subject": {
                "reference": "urn:uuid:bc8293ee-4fa7-4fac-bcd4-ec1281554d5b"
            },
            "performer": [ {
                "reference": "urn:uuid:5c57ffd8-3c7f-48c5-8da3-3ed1701d46fb"
            }, {
                "reference": "urn:uuid:9adba015-1455-4f69-861f-b09857961369"
            } ],
            "comment": "Results repeated Low plasma Folate",
            "specimen": {
                "reference": "urn:uuid:2682acbe-a3f6-4024-a3b0-9e285f3e247f"
            },
            "related": [ {
                "type": "has-member",
                "target": {
                    "reference": "urn:uuid:c4036f59-6529-4cab-a3bc-2c2fab15c7ea"
                }
            }, {
                "type": "has-member",
                "target": {
                    "reference": "urn:uuid:999317bd-1028-4fac-885e-48fe9e405813"
                }
            } ]
        }
    }, {
        "fullUrl": "urn:uuid:c4036f59-6529-4cab-a3bc-2c2fab15c7ea",
        "resource": {
            "resourceType": "Observation",
            "id": "c4036f59-6529-4cab-a3bc-2c2fab15c7ea",
            "meta": {
                "profile": [ "https://fhir.hl7.org.uk/STU3/StructureDefinition/CareConnect-Observation-1" ]
            },
            "status": "final",
            "code": {
                "coding": [ {
                    "system": "http://read.info/readv2",
                    "code": "42T..",
                    "display": "Serum vitamin B12"
                } ]
            },
            "subject": {
                "reference": "urn:uuid:bc8293ee-4fa7-4fac-bcd4-ec1281554d5b"
            },
            "performer": [ {
                "reference": "urn:uuid:5c57ffd8-3c7f-48c5-8da3-3ed1701d46fb"
            }, {
                "reference": "urn:uuid:9adba015-1455-4f69-861f-b09857961369"
            } ],
            "valueQuantity": {
                "value": 1001,
                "unit": "ng/L"
            },
            "specimen": {
                "reference": "urn:uuid:2682acbe-a3f6-4024-a3b0-9e285f3e247f"
            },
            "referenceRange": [ {
                "low": {
                    "value": 170
                },
                "high": {
                    "value": 1100
                }
            } ],
            "related": [ {
                "target": {
                    "reference": "urn:uuid:b0069e91-e18e-4674-8668-49dbb88e619d"
                }
            } ]
        }
    }, {
        "fullUrl": "urn:uuid:999317bd-1028-4fac-885e-48fe9e405813",
        "resource": {
            "resourceType": "Observation",
            "id": "999317bd-1028-4fac-885e-48fe9e405813",
            "meta": {
                "profile": [ "https://fhir.hl7.org.uk/STU3/StructureDefinition/CareConnect-Observation-1" ]
            },
            "status": "final",
            "code": {
                "coding": [ {
                    "system": "http://read.info/readv2",
                    "code": "42UE.",
                    "display": "Plasma folate level"
                } ]
            },
            "subject": {
                "reference": "urn:uuid:bc8293ee-4fa7-4fac-bcd4-ec1281554d5b"
            },
            "performer": [ {
                "reference": "urn:uuid:5c57ffd8-3c7f-48c5-8da3-3ed1701d46fb"
            }, {
                "reference": "urn:uuid:9adba015-1455-4f69-861f-b09857961369"
            } ],
            "valueQuantity": {
                "value": 0.8,
                "unit": "ng/mL"
            },
            "specimen": {
                "reference": "urn:uuid:2682acbe-a3f6-4024-a3b0-9e285f3e247f"
            },
            "referenceRange": [ {
                "low": {
                    "value": 2.0,
                    "unit": "nmol/L"
                },
                "high": {
                    "value": 20.0,
                    "unit": "nmol/L"
                }
            } ],
            "related": [ {
                "target": {
                    "reference": "urn:uuid:b0069e91-e18e-4674-8668-49dbb88e619d"
                }
            } ]
        }
    } ]
}