{
    "resourceType": "Bundle",
    "id": "a7d08a83-c9fb-4611-b18d-bb768d6ef8e7",
    "meta": {
        "lastUpdated": "2021-06-08T10:48:59.686+01:00",
        "profile": [
            "https://fhir.nhs.uk/STU3/StructureDefinition/ITK-Message-Bundle-1"
        ]
    },
    "identifier": {
        "system": "https://tools.ietf.org/html/rfc4122",
        "value": "17e5f7ee-a555-4626-8693-4e234a85f0fa"
    },
    "type": "message",
    "entry": [
        {
            "fullUrl": "urn:uuid:db6dcac1-3bdf-4fb1-b13e-98828d357d55",
            "resource": {
                "resourceType": "MessageHeader",
                "id": "db6dcac1-3bdf-4fb1-b13e-98828d357d55",
                "meta": {
                    "profile": [
                        "https://fhir.nhs.uk/STU3/StructureDefinition/ITK-MessageHeader-2"
                    ]
                },
                "extension": [
                    {
                        "url": "https://fhir.nhs.uk/STU3/StructureDefinition/Extension-ITK-MessageHandling-2",
                        "extension": [
                            {
                                "url": "BusAckRequested",
                                "valueBoolean": true
                            },
                            {
                                "url": "InfAckRequested",
                                "valueBoolean": true
                            },
                            {
                                "url": "RecipientType",
                                "valueCoding": {
                                    "system": "https://fhir.nhs.uk/STU3/CodeSystem/ITK-RecipientType-1",
                                    "code": "FA",
                                    "display": "For Action"
                                }
                            },
                            {
                                "url": "SenderReference",
                                "valueString": "None"
                            },
                            {
                                "url": "LocalExtension",
                                "valueString": "None"
                            }
                        ]
                    }
                ],
                "event": {
                    "system": "https://fhir.nhs.uk/STU3/CodeSystem/ITK-MessageEvent-2",
                    "code": "ITK012M",
                    "display": "ITK National Pathology"
                },
                "receiver": {
                    "reference": "urn:uuid:5821f2ac-a634-462b-9f0d-98b847b0b585"
                },
                "sender": {
                    "reference": "urn:uuid:f3b90c45-6e85-43fb-bbd9-e7b6417fa4e7"
                },
                "timestamp": "2010-03-01T17:51:00.000+00:00",
                "source": {
                    "endpoint": "lab_results_mailbox"
                },
                "responsible": {
                    "reference": "urn:uuid:f3b90c45-6e85-43fb-bbd9-e7b6417fa4e7"
                },
                "focus": [
                    {
                        "reference": "urn:uuid:9c59387f-b6de-443d-99b8-7e2b5bd9f946"
                    }
                ]
            }
        },
        {
            "fullUrl": "urn:uuid:43a21dfe-556c-4677-a221-6cf2992cc4f5",
            "resource": {
                "resourceType": "Patient",
                "id": "43a21dfe-556c-4677-a221-6cf2992cc4f5",
                "meta": {
                    "profile": [
                        "https://fhir.hl7.org.uk/STU3/StructureDefinition/CareConnect-Patient-1"
                    ]
                },
                "identifier": [
                    {
                        "extension": [
                            {
                                "url": "https://fhir.hl7.org.uk/STU3/StructureDefinition/Extension-CareConnect-NHSNumberVerificationStatus-1",
                                "valueCodeableConcept": {
                                    "coding": [
                                        {
                                            "system": "https://fhir.hl7.org.uk/STU3/CodeSystem/CareConnect-NHSNumberVerificationStatus-1",
                                            "code": "01",
                                            "display": "Number present and verified"
                                        }
                                    ]
                                }
                            }
                        ],
                        "system": "https://fhir.nhs.uk/Id/nhs-number",
                        "value": "9435492908"
                    }
                ],
                "name": [
                    {
                        "use": "official",
                        "family": "AZIZ",
                        "given": [
                            "NISMA"
                        ]
                    }
                ],
                "gender": "female",
                "birthDate": "1945-07-30",
                "address": [
                    {
                        "line": [
                            "FLAT1",
                            "59 SANDTOFT ROAD",
                            "DONCASTER"
                        ],
                        "postalCode": "DN9 1PJ"
                    }
                ]
            }
        },
        {
            "fullUrl": "urn:uuid:92b15160-7d4d-46b3-8bee-280429be9692",
            "resource": {
                "resourceType": "Practitioner",
                "id": "92b15160-7d4d-46b3-8bee-280429be9692",
                "meta": {
                    "profile": [
                        "https://fhir.hl7.org.uk/STU3/StructureDefinition/CareConnect-Practitioner-1"
                    ]
                },
                "identifier": [
                    {
                        "value": "G3380314"
                    }
                ],
                "name": [
                    {
                        "text": "SCOTT"
                    }
                ]
            }
        },
        {
            "fullUrl": "urn:uuid:5821f2ac-a634-462b-9f0d-98b847b0b585",
            "resource": {
                "resourceType": "Organization",
                "id": "5821f2ac-a634-462b-9f0d-98b847b0b585",
                "meta": {
                    "profile": [
                        "https://fhir.hl7.org.uk/STU3/StructureDefinition/CareConnect-Organization-1"
                    ]
                },
                "name": "NORTH DOWN GP"
            }
        },
        {
            "fullUrl": "urn:uuid:3f281147-1c66-4a2f-9767-25750976f6ef",
            "resource": {
                "resourceType": "Practitioner",
                "id": "3f281147-1c66-4a2f-9767-25750976f6ef",
                "meta": {
                    "profile": [
                        "https://fhir.hl7.org.uk/STU3/StructureDefinition/CareConnect-Practitioner-1"
                    ]
                }
            }
        },
        {
            "fullUrl": "urn:uuid:f3b90c45-6e85-43fb-bbd9-e7b6417fa4e7",
            "resource": {
                "resourceType": "Organization",
                "id": "f3b90c45-6e85-43fb-bbd9-e7b6417fa4e7",
                "meta": {
                    "profile": [
                        "https://fhir.hl7.org.uk/STU3/StructureDefinition/CareConnect-Organization-1"
                    ]
                },
                "type": [
                    {
                        "coding": [
                            {
                                "code": "dept",
                                "display": "Haematology"
                            }
                        ]
                    }
                ],
                "name": "ST JAMES'S UNIVERSITY HOSPITAL"
            }
        },
        {
            "fullUrl": "urn:uuid:673b8f48-648c-4220-9043-ee2c6d4345dd",
            "resource": {
                "resourceType": "ProcedureRequest",
                "id": "673b8f48-648c-4220-9043-ee2c6d4345dd",
                "meta": {
                    "profile": [
                        "https://fhir.hl7.org.uk/STU3/StructureDefinition/CareConnect-ProcedureRequest-1"
                    ]
                },
                "status": "active",
                "intent": "order",
                "code": {
                    "coding": [
                        {
                            "system": "http://snomed.info/sct",
                            "code": "15220000",
                            "display": "Laboratory test (procedure)"
                        }
                    ]
                },
                "subject": {
                    "reference": "urn:uuid:43a21dfe-556c-4677-a221-6cf2992cc4f5"
                },
                "requester": {
                    "agent": {
                        "reference": "urn:uuid:92b15160-7d4d-46b3-8bee-280429be9692"
                    },
                    "onBehalfOf": {
                        "reference": "urn:uuid:5821f2ac-a634-462b-9f0d-98b847b0b585"
                    }
                },
                "performer": {
                    "reference": "urn:uuid:3f281147-1c66-4a2f-9767-25750976f6ef"
                },
                "note": [
                    {
                        "text": "TIRED ALL THE TIME, LOW Hb"
                    },
                    {
                        "text": "COELIAC"
                    }
                ]
            }
        },
        {
            "fullUrl": "urn:uuid:9c59387f-b6de-443d-99b8-7e2b5bd9f946",
            "resource": {
                "resourceType": "DiagnosticReport",
                "id": "9c59387f-b6de-443d-99b8-7e2b5bd9f946",
                "meta": {
                    "profile": [
                        "https://fhir.hl7.org.uk/STU3/StructureDefinition/CareConnect-DiagnosticReport-1"
                    ]
                },
                "identifier": [
                    {
                        "system": "https://tools.ietf.org/html/rfc4122",
                        "value": "15/CH000037K/200010191704"
                    }
                ],
                "basedOn": [
                    {
                        "reference": "urn:uuid:673b8f48-648c-4220-9043-ee2c6d4345dd"
                    }
                ],
                "status": "unknown",
                "code": {
                    "coding": [
                        {
                            "system": "http://snomed.info/sct",
                            "code": "721981007",
                            "display": "Diagnostic studies report"
                        }
                    ]
                },
                "subject": {
                    "reference": "urn:uuid:43a21dfe-556c-4677-a221-6cf2992cc4f5"
                },
                "issued": "2010-02-25T15:41:00.000+00:00",
                "performer": [
                    {
                        "actor": {
                            "reference": "urn:uuid:f3b90c45-6e85-43fb-bbd9-e7b6417fa4e7"
                        }
                    },
                    {
                        "actor": {
                            "reference": "urn:uuid:3f281147-1c66-4a2f-9767-25750976f6ef"
                        }
                    }
                ],
                "specimen": [
                    {
                        "reference": "urn:uuid:00daf5f4-f3fa-484c-a912-3f6ef54ac8d4"
                    }
                ],
                "result": [
                    {
                        "reference": "urn:uuid:a542d50d-0bf0-4371-aab5-49dd702c092f"
                    },
                    {
                        "reference": "urn:uuid:d6f826bc-643f-4195-b2e0-c5622c4812c6"
                    },
                    {
                        "reference": "urn:uuid:96f37a34-1d70-4e2c-98f3-0c0cef7f368c"
                    }
                ]
            }
        },
        {
            "fullUrl": "urn:uuid:00daf5f4-f3fa-484c-a912-3f6ef54ac8d4",
            "resource": {
                "resourceType": "Specimen",
                "id": "00daf5f4-f3fa-484c-a912-3f6ef54ac8d4",
                "meta": {
                    "profile": [
                        "https://fhir.hl7.org.uk/STU3/StructureDefinition/CareConnect-Specimen-1"
                    ]
                },
                "accessionIdentifier": {
                    "value": "CH000037KA"
                },
                "type": {
                    "coding": [
                        {
                            "display": "VENOUS BLOOD"
                        }
                    ]
                },
                "subject": {
                    "reference": "urn:uuid:43a21dfe-556c-4677-a221-6cf2992cc4f5"
                },
                "receivedTime": "2010-02-24T15:41:00+00:00",
                "collection": {
                    "collectedDateTime": "2010-02-23T15:41:00+00:00"
                }
            }
        },
        {
            "fullUrl": "urn:uuid:a542d50d-0bf0-4371-aab5-49dd702c092f",
            "resource": {
                "resourceType": "Observation",
                "id": "a542d50d-0bf0-4371-aab5-49dd702c092f",
                "meta": {
                    "profile": [
                        "https://fhir.hl7.org.uk/STU3/StructureDefinition/CareConnect-Observation-1"
                    ]
                },
                "status": "final",
                "code": {
                    "coding": [
                        {
                            "display": "B12/FOLATE"
                        }
                    ]
                },
                "subject": {
                    "reference": "urn:uuid:43a21dfe-556c-4677-a221-6cf2992cc4f5"
                },
                "performer": [
                    {
                        "reference": "urn:uuid:f3b90c45-6e85-43fb-bbd9-e7b6417fa4e7"
                    },
                    {
                        "reference": "urn:uuid:3f281147-1c66-4a2f-9767-25750976f6ef"
                    }
                ],
                "comment": "Results repeated Low plasma Folate",
                "specimen": {
                    "reference": "urn:uuid:00daf5f4-f3fa-484c-a912-3f6ef54ac8d4"
                },
                "related": [
                    {
                        "type": "has-member",
                        "target": {
                            "reference": "urn:uuid:d6f826bc-643f-4195-b2e0-c5622c4812c6"
                        }
                    },
                    {
                        "type": "has-member",
                        "target": {
                            "reference": "urn:uuid:96f37a34-1d70-4e2c-98f3-0c0cef7f368c"
                        }
                    }
                ]
            }
        },
        {
            "fullUrl": "urn:uuid:d6f826bc-643f-4195-b2e0-c5622c4812c6",
            "resource": {
                "resourceType": "Observation",
                "id": "d6f826bc-643f-4195-b2e0-c5622c4812c6",
                "meta": {
                    "profile": [
                        "https://fhir.hl7.org.uk/STU3/StructureDefinition/CareConnect-Observation-1"
                    ]
                },
                "status": "final",
                "code": {
                    "coding": [
                        {
                            "system": "http://read.info/readv2",
                            "code": "42T..",
                            "display": "Serum vitamin B12"
                        }
                    ]
                },
                "subject": {
                    "reference": "urn:uuid:43a21dfe-556c-4677-a221-6cf2992cc4f5"
                },
                "performer": [
                    {
                        "reference": "urn:uuid:f3b90c45-6e85-43fb-bbd9-e7b6417fa4e7"
                    },
                    {
                        "reference": "urn:uuid:3f281147-1c66-4a2f-9767-25750976f6ef"
                    }
                ],
                "valueQuantity": {
                    "value": 1001,
                    "unit": "ng/L"
                },
                "specimen": {
                    "reference": "urn:uuid:00daf5f4-f3fa-484c-a912-3f6ef54ac8d4"
                },
                "referenceRange": [
                    {
                        "low": {
                            "value": 170
                        },
                        "high": {
                            "value": 1100
                        }
                    }
                ]
            }
        },
        {
            "fullUrl": "urn:uuid:96f37a34-1d70-4e2c-98f3-0c0cef7f368c",
            "resource": {
                "resourceType": "Observation",
                "id": "96f37a34-1d70-4e2c-98f3-0c0cef7f368c",
                "meta": {
                    "profile": [
                        "https://fhir.hl7.org.uk/STU3/StructureDefinition/CareConnect-Observation-1"
                    ]
                },
                "status": "final",
                "code": {
                    "coding": [
                        {
                            "system": "http://read.info/readv2",
                            "code": "42UE.",
                            "display": "Plasma folate level"
                        }
                    ]
                },
                "subject": {
                    "reference": "urn:uuid:43a21dfe-556c-4677-a221-6cf2992cc4f5"
                },
                "performer": [
                    {
                        "reference": "urn:uuid:f3b90c45-6e85-43fb-bbd9-e7b6417fa4e7"
                    },
                    {
                        "reference": "urn:uuid:3f281147-1c66-4a2f-9767-25750976f6ef"
                    }
                ],
                "valueQuantity": {
                    "value": 2.0,
                    "unit": "ng/mL"
                },
                "interpretation": {
                    "coding": [ {
                        "code": "PA",
                        "display": "Potentially abnormal"
                    } ]
                },
                "specimen": {
                    "reference": "urn:uuid:00daf5f4-f3fa-484c-a912-3f6ef54ac8d4"
                },
                "referenceRange": [
                    {
                        "low": {
                            "value": 2.0
                        },
                        "high": {
                            "value": 20.0
                        }
                    }
                ]
            }
        }
    ]
}