{
    "resourceType": "Bundle",
    "id": "47f64d17-56e8-4896-adce-7477a4c6fcca",
    "meta": {
        "lastUpdated": "2021-06-07T10:22:28.485+01:00",
        "profile": [
            "https://fhir.nhs.uk/STU3/StructureDefinition/ITK-Message-Bundle-1"
        ]
    },
    "identifier": {
        "system": "https://tools.ietf.org/html/rfc4122",
        "value": "cc65e451-8e02-4b55-8936-b86003ca7559"
    },
    "type": "message",
    "entry": [
        {
            "fullUrl": "urn:uuid:313963ff-f435-42d4-b7ad-8feef431005a",
            "resource": {
                "resourceType": "MessageHeader",
                "id": "313963ff-f435-42d4-b7ad-8feef431005a",
                "meta": {
                    "profile": [
                        "https://fhir.nhs.uk/STU3/StructureDefinition/ITK-MessageHeader-2"
                    ]
                },
                "extension": [
                    {
                        "url": "https://fhir.nhs.uk/STU3/StructureDefinition/Extension-ITK-MessageHandling-2",
                        "extension": [
                            {
                                "url": "BusAckRequested",
                                "valueBoolean": true
                            },
                            {
                                "url": "InfAckRequested",
                                "valueBoolean": true
                            },
                            {
                                "url": "RecipientType",
                                "valueCoding": {
                                    "system": "https://fhir.nhs.uk/STU3/CodeSystem/ITK-RecipientType-1",
                                    "code": "FA",
                                    "display": "For Action"
                                }
                            },
                            {
                                "url": "SenderReference",
                                "valueString": "None"
                            },
                            {
                                "url": "LocalExtension",
                                "valueString": "None"
                            }
                        ]
                    }
                ],
                "event": {
                    "system": "https://fhir.nhs.uk/STU3/CodeSystem/ITK-MessageEvent-2",
                    "code": "ITK012M",
                    "display": "ITK National Pathology"
                },
                "receiver": {
                    "reference": "urn:uuid:ecde1932-36d1-4464-a5a1-3c28af6b194d"
                },
                "sender": {
                    "reference": "urn:uuid:d9f753d7-1f91-496f-99d5-76a5f356f424"
                },
                "timestamp": "2009-11-13T15:19:00.000+00:00",
                "source": {
                    "endpoint": "lab_results_mailbox"
                },
                "responsible": {
                    "reference": "urn:uuid:d9f753d7-1f91-496f-99d5-76a5f356f424"
                },
                "focus": [
                    {
                        "reference": "urn:uuid:1db85ae9-f9f2-4508-a134-497918ee78ac"
                    }
                ]
            }
        },
        {
            "fullUrl": "urn:uuid:3ac274e0-e421-4b61-aaf1-8c5373caf5ac",
            "resource": {
                "resourceType": "Patient",
                "id": "3ac274e0-e421-4b61-aaf1-8c5373caf5ac",
                "meta": {
                    "profile": [
                        "https://fhir.hl7.org.uk/STU3/StructureDefinition/CareConnect-Patient-1"
                    ]
                },
                "identifier": [
                    {
                        "extension": [
                            {
                                "url": "https://fhir.hl7.org.uk/STU3/StructureDefinition/Extension-CareConnect-NHSNumberVerificationStatus-1",
                                "valueCodeableConcept": {
                                    "coding": [
                                        {
                                            "system": "https://fhir.hl7.org.uk/STU3/CodeSystem/CareConnect-NHSNumberVerificationStatus-1",
                                            "code": "01",
                                            "display": "Number present and verified"
                                        }
                                    ]
                                }
                            }
                        ],
                        "system": "https://fhir.nhs.uk/Id/nhs-number",
                        "value": "8982821201"
                    }
                ],
                "name": [
                    {
                        "use": "official",
                        "family": "GRIMSHAW",
                        "given": [
                            "BRETT"
                        ],
                        "prefix": [
                            "CAPT"
                        ]
                    }
                ],
                "gender": "male",
                "birthDate": "1938-02-06",
                "address": [
                    {
                        "line": [
                            "HIGHWOOD BUNGALOW",
                            "EXETER",
                            "DEVON"
                        ],
                        "postalCode": "TQ14 4QJ"
                    }
                ]
            }
        },
        {
            "fullUrl": "urn:uuid:bcfd9af5-8ccc-476c-9cff-36f995908500",
            "resource": {
                "resourceType": "Practitioner",
                "id": "bcfd9af5-8ccc-476c-9cff-36f995908500",
                "meta": {
                    "profile": [
                        "https://fhir.hl7.org.uk/STU3/StructureDefinition/CareConnect-Practitioner-1"
                    ]
                },
                "name": [
                    {
                        "text": "BCSP Hub Manager"
                    }
                ]
            }
        },
        {
            "fullUrl": "urn:uuid:ecde1932-36d1-4464-a5a1-3c28af6b194d",
            "resource": {
                "resourceType": "Organization",
                "id": "ecde1932-36d1-4464-a5a1-3c28af6b194d",
                "meta": {
                    "profile": [
                        "https://fhir.hl7.org.uk/STU3/StructureDefinition/CareConnect-Organization-1"
                    ]
                }
            }
        },
        {
            "fullUrl": "urn:uuid:9bcb6f25-daa6-4d69-9a09-65044fdffb82",
            "resource": {
                "resourceType": "Practitioner",
                "id": "9bcb6f25-daa6-4d69-9a09-65044fdffb82",
                "meta": {
                    "profile": [
                        "https://fhir.hl7.org.uk/STU3/StructureDefinition/CareConnect-Practitioner-1"
                    ]
                }
            }
        },
        {
            "fullUrl": "urn:uuid:d9f753d7-1f91-496f-99d5-76a5f356f424",
            "resource": {
                "resourceType": "Organization",
                "id": "d9f753d7-1f91-496f-99d5-76a5f356f424",
                "meta": {
                    "profile": [
                        "https://fhir.hl7.org.uk/STU3/StructureDefinition/CareConnect-Organization-1"
                    ]
                },
                "type": [
                    {
                        "coding": [
                            {
                                "code": "dept",
                                "display": "UNKNOWN"
                            }
                        ]
                    }
                ],
                "name": "Southern Bowel Cancer Screening Programme Hub"
            }
        },
        {
            "fullUrl": "urn:uuid:58e18f68-e371-4758-bc16-f40d14ed4bb8",
            "resource": {
                "resourceType": "ProcedureRequest",
                "id": "58e18f68-e371-4758-bc16-f40d14ed4bb8",
                "meta": {
                    "profile": [
                        "https://fhir.hl7.org.uk/STU3/StructureDefinition/CareConnect-ProcedureRequest-1"
                    ]
                },
                "status": "active",
                "intent": "order",
                "code": {
                    "text": "unknown"
                },
                "subject": {
                    "reference": "urn:uuid:3ac274e0-e421-4b61-aaf1-8c5373caf5ac"
                },
                "requester": {
                    "agent": {
                        "reference": "urn:uuid:bcfd9af5-8ccc-476c-9cff-36f995908500"
                    },
                    "onBehalfOf": {
                        "reference": "urn:uuid:ecde1932-36d1-4464-a5a1-3c28af6b194d"
                    }
                },
                "performer": {
                    "reference": "urn:uuid:9bcb6f25-daa6-4d69-9a09-65044fdffb82"
                }
            }
        },
        {
            "fullUrl": "urn:uuid:1db85ae9-f9f2-4508-a134-497918ee78ac",
            "resource": {
                "resourceType": "DiagnosticReport",
                "id": "1db85ae9-f9f2-4508-a134-497918ee78ac",
                "meta": {
                    "profile": [
                        "https://fhir.hl7.org.uk/STU3/StructureDefinition/CareConnect-DiagnosticReport-1"
                    ]
                },
                "identifier": [
                    {
                        "system": "https://tools.ietf.org/html/rfc4122",
                        "value": "34/1"
                    }
                ],
                "basedOn": [
                    {
                        "reference": "urn:uuid:58e18f68-e371-4758-bc16-f40d14ed4bb8"
                    }
                ],
                "status": "unknown",
                "code": {
                    "coding": [
                        {
                            "system": "http://snomed.info/sct",
                            "code": "721981007",
                            "display": "Diagnostic studies report"
                        }
                    ]
                },
                "subject": {
                    "reference": "urn:uuid:3ac274e0-e421-4b61-aaf1-8c5373caf5ac"
                },
                "issued": "2009-11-10T11:45:00.000+00:00",
                "performer": [
                    {
                        "actor": {
                            "reference": "urn:uuid:d9f753d7-1f91-496f-99d5-76a5f356f424"
                        }
                    },
                    {
                        "actor": {
                            "reference": "urn:uuid:9bcb6f25-daa6-4d69-9a09-65044fdffb82"
                        }
                    }
                ],
                "specimen": [
                    {
                        "reference": "urn:uuid:7ac240eb-7124-4b98-99d0-b8a246b1a07c"
                    }
                ],
                "result": [
                    {
                        "reference": "urn:uuid:419308ac-68ef-496c-a7e6-8a593815d455"
                    }
                ]
            }
        },
        {
            "fullUrl": "urn:uuid:7ac240eb-7124-4b98-99d0-b8a246b1a07c",
            "resource": {
                "resourceType": "Specimen",
                "id": "7ac240eb-7124-4b98-99d0-b8a246b1a07c",
                "meta": {
                    "profile": [
                        "https://fhir.hl7.org.uk/STU3/StructureDefinition/CareConnect-Specimen-1"
                    ]
                },
                "type": {
                    "coding": [
                        {
                            "system": "http://snomed.info/sct",
                            "display": "Faeces"
                        }
                    ]
                },
                "subject": {
                    "reference": "urn:uuid:3ac274e0-e421-4b61-aaf1-8c5373caf5ac"
                }
            }
        },
        {
            "fullUrl": "urn:uuid:419308ac-68ef-496c-a7e6-8a593815d455",
            "resource": {
                "resourceType": "Observation",
                "id": "419308ac-68ef-496c-a7e6-8a593815d455",
                "meta": {
                    "profile": [
                        "https://fhir.hl7.org.uk/STU3/StructureDefinition/CareConnect-Observation-1"
                    ]
                },
                "status": "unknown",
                "code": {
                    "coding": [
                        {
                            "system": "http://snomed.info/sct",
                            "code": "368481000000103",
                            "display": "Bowel cancer screening result"
                        }
                    ]
                },
                "subject": {
                    "reference": "urn:uuid:3ac274e0-e421-4b61-aaf1-8c5373caf5ac"
                },
                "performer": [
                    {
                        "reference": "urn:uuid:d9f753d7-1f91-496f-99d5-76a5f356f424"
                    },
                    {
                        "reference": "urn:uuid:9bcb6f25-daa6-4d69-9a09-65044fdffb82"
                    }
                ],
                "valueCodeableConcept": {
                    "coding": [
                        {
                            "system": "http://snomed.info/sct",
                            "code": "375211000000108",
                            "display": "Bowel cancer screening programme FOB test normal (finding)"
                        }
                    ]
                },
                "comment": "Normal. Sent following an initial single Negative result or following 2 Negative results after an initial Weak Positive",
                "specimen": {
                    "reference": "urn:uuid:7ac240eb-7124-4b98-99d0-b8a246b1a07c"
                },
                "referenceRange": [
                    {
                        "low": {
                            "value": 13.3,
                            "unit": "g/dl"
                        },
                        "high": {
                            "value": 16.7,
                            "unit": "g/dl"
                        }
                    }
                ]
            }
        }
    ]
}