{
    "resourceType": "Bundle",
    "id": "016a79f9-0efe-4880-8930-5a5ef49497c7",
    "meta": {
        "lastUpdated": "2021-06-08T10:49:51.132+01:00",
        "profile": [
            "https://fhir.nhs.uk/STU3/StructureDefinition/ITK-Message-Bundle-1"
        ]
    },
    "identifier": {
        "system": "https://tools.ietf.org/html/rfc4122",
        "value": "dcac5651-873b-4671-93ff-c30c5f462786"
    },
    "type": "message",
    "entry": [
        {
            "fullUrl": "urn:uuid:78e41063-f899-4acd-a528-617ed57093bd",
            "resource": {
                "resourceType": "MessageHeader",
                "id": "78e41063-f899-4acd-a528-617ed57093bd",
                "meta": {
                    "profile": [
                        "https://fhir.nhs.uk/STU3/StructureDefinition/ITK-MessageHeader-2"
                    ]
                },
                "extension": [
                    {
                        "url": "https://fhir.nhs.uk/STU3/StructureDefinition/Extension-ITK-MessageHandling-2",
                        "extension": [
                            {
                                "url": "BusAckRequested",
                                "valueBoolean": true
                            },
                            {
                                "url": "InfAckRequested",
                                "valueBoolean": true
                            },
                            {
                                "url": "RecipientType",
                                "valueCoding": {
                                    "system": "https://fhir.nhs.uk/STU3/CodeSystem/ITK-RecipientType-1",
                                    "code": "FA",
                                    "display": "For Action"
                                }
                            },
                            {
                                "url": "SenderReference",
                                "valueString": "None"
                            },
                            {
                                "url": "LocalExtension",
                                "valueString": "None"
                            }
                        ]
                    }
                ],
                "event": {
                    "system": "https://fhir.nhs.uk/STU3/CodeSystem/ITK-MessageEvent-2",
                    "code": "ITK012M",
                    "display": "ITK National Pathology"
                },
                "receiver": {
                    "reference": "urn:uuid:e9f04e71-1fbc-428e-bd5f-20f53e46f0c7"
                },
                "sender": {
                    "reference": "urn:uuid:f6419294-fac2-4b93-a1f9-db4044dc47b8"
                },
                "timestamp": "2009-11-13T15:19:00.000+00:00",
                "source": {
                    "endpoint": "lab_results_mailbox"
                },
                "responsible": {
                    "reference": "urn:uuid:f6419294-fac2-4b93-a1f9-db4044dc47b8"
                },
                "focus": [
                    {
                        "reference": "urn:uuid:ab092ed1-d0a8-4d69-bfef-21a48cd953db"
                    }
                ]
            }
        },
        {
            "fullUrl": "urn:uuid:eb843ee3-3b81-4b4a-86fe-545853f8b8d9",
            "resource": {
                "resourceType": "Patient",
                "id": "eb843ee3-3b81-4b4a-86fe-545853f8b8d9",
                "meta": {
                    "profile": [
                        "https://fhir.hl7.org.uk/STU3/StructureDefinition/CareConnect-Patient-1"
                    ]
                },
                "identifier": [
                    {
                        "extension": [
                            {
                                "url": "https://fhir.hl7.org.uk/STU3/StructureDefinition/Extension-CareConnect-NHSNumberVerificationStatus-1",
                                "valueCodeableConcept": {
                                    "coding": [
                                        {
                                            "system": "https://fhir.hl7.org.uk/STU3/CodeSystem/CareConnect-NHSNumberVerificationStatus-1",
                                            "code": "01",
                                            "display": "Number present and verified"
                                        }
                                    ]
                                }
                            }
                        ],
                        "system": "https://fhir.nhs.uk/Id/nhs-number",
                        "value": "8982821201"
                    }
                ],
                "name": [
                    {
                        "use": "official",
                        "family": "GRIMSHAW",
                        "given": [
                            "BRETT"
                        ],
                        "prefix": [
                            "CAPT"
                        ]
                    }
                ],
                "gender": "male",
                "birthDate": "1938-02-06",
                "address": [
                    {
                        "line": [
                            "HIGHWOOD BUNGALOW",
                            "EXETER",
                            "DEVON"
                        ],
                        "postalCode": "TQ14 4QJ"
                    }
                ]
            }
        },
        {
            "fullUrl": "urn:uuid:faa4d77b-625a-45da-820d-7b2eb2ea5b26",
            "resource": {
                "resourceType": "Practitioner",
                "id": "faa4d77b-625a-45da-820d-7b2eb2ea5b26",
                "meta": {
                    "profile": [
                        "https://fhir.hl7.org.uk/STU3/StructureDefinition/CareConnect-Practitioner-1"
                    ]
                },
                "name": [
                    {
                        "text": "BCSP Hub Manager"
                    }
                ]
            }
        },
        {
            "fullUrl": "urn:uuid:e9f04e71-1fbc-428e-bd5f-20f53e46f0c7",
            "resource": {
                "resourceType": "Organization",
                "id": "e9f04e71-1fbc-428e-bd5f-20f53e46f0c7",
                "meta": {
                    "profile": [
                        "https://fhir.hl7.org.uk/STU3/StructureDefinition/CareConnect-Organization-1"
                    ]
                }
            }
        },
        {
            "fullUrl": "urn:uuid:e2d2f3c0-c56c-4a5b-9435-dd679bc59760",
            "resource": {
                "resourceType": "Practitioner",
                "id": "e2d2f3c0-c56c-4a5b-9435-dd679bc59760",
                "meta": {
                    "profile": [
                        "https://fhir.hl7.org.uk/STU3/StructureDefinition/CareConnect-Practitioner-1"
                    ]
                }
            }
        },
        {
            "fullUrl": "urn:uuid:f6419294-fac2-4b93-a1f9-db4044dc47b8",
            "resource": {
                "resourceType": "Organization",
                "id": "f6419294-fac2-4b93-a1f9-db4044dc47b8",
                "meta": {
                    "profile": [
                        "https://fhir.hl7.org.uk/STU3/StructureDefinition/CareConnect-Organization-1"
                    ]
                },
                "type": [
                    {
                        "coding": [
                            {
                                "code": "dept",
                                "display": "UNKNOWN"
                            }
                        ]
                    }
                ],
                "name": "Southern Bowel Cancer Screening Programme Hub"
            }
        },
        {
            "fullUrl": "urn:uuid:66d88a87-8055-499a-9289-471c629d0237",
            "resource": {
                "resourceType": "ProcedureRequest",
                "id": "66d88a87-8055-499a-9289-471c629d0237",
                "meta": {
                    "profile": [
                        "https://fhir.hl7.org.uk/STU3/StructureDefinition/CareConnect-ProcedureRequest-1"
                    ]
                },
                "status": "active",
                "intent": "order",
                "code": {
                    "coding": [
                        {
                            "system": "http://snomed.info/sct",
                            "code": "15220000",
                            "display": "Laboratory test (procedure)"
                        }
                    ]
                },
                "subject": {
                    "reference": "urn:uuid:eb843ee3-3b81-4b4a-86fe-545853f8b8d9"
                },
                "requester": {
                    "agent": {
                        "reference": "urn:uuid:faa4d77b-625a-45da-820d-7b2eb2ea5b26"
                    },
                    "onBehalfOf": {
                        "reference": "urn:uuid:e9f04e71-1fbc-428e-bd5f-20f53e46f0c7"
                    }
                },
                "performer": {
                    "reference": "urn:uuid:e2d2f3c0-c56c-4a5b-9435-dd679bc59760"
                }
            }
        },
        {
            "fullUrl": "urn:uuid:ab092ed1-d0a8-4d69-bfef-21a48cd953db",
            "resource": {
                "resourceType": "DiagnosticReport",
                "id": "ab092ed1-d0a8-4d69-bfef-21a48cd953db",
                "meta": {
                    "profile": [
                        "https://fhir.hl7.org.uk/STU3/StructureDefinition/CareConnect-DiagnosticReport-1"
                    ]
                },
                "identifier": [
                    {
                        "system": "https://tools.ietf.org/html/rfc4122",
                        "value": "34/1"
                    }
                ],
                "basedOn": [
                    {
                        "reference": "urn:uuid:66d88a87-8055-499a-9289-471c629d0237"
                    }
                ],
                "status": "unknown",
                "code": {
                    "coding": [
                        {
                            "system": "http://snomed.info/sct",
                            "code": "721981007",
                            "display": "Diagnostic studies report"
                        }
                    ]
                },
                "subject": {
                    "reference": "urn:uuid:eb843ee3-3b81-4b4a-86fe-545853f8b8d9"
                },
                "issued": "2009-11-10T11:45:00.000+00:00",
                "performer": [
                    {
                        "actor": {
                            "reference": "urn:uuid:f6419294-fac2-4b93-a1f9-db4044dc47b8"
                        }
                    },
                    {
                        "actor": {
                            "reference": "urn:uuid:e2d2f3c0-c56c-4a5b-9435-dd679bc59760"
                        }
                    }
                ],
                "specimen": [
                    {
                        "reference": "urn:uuid:bde2396b-ff66-423b-a502-cf1e5e5af4b8"
                    }
                ],
                "result": [
                    {
                        "reference": "urn:uuid:0656a58c-ded9-438c-a24a-a370a00ee95f"
                    }
                ]
            }
        },
        {
            "fullUrl": "urn:uuid:bde2396b-ff66-423b-a502-cf1e5e5af4b8",
            "resource": {
                "resourceType": "Specimen",
                "id": "bde2396b-ff66-423b-a502-cf1e5e5af4b8",
                "meta": {
                    "profile": [
                        "https://fhir.hl7.org.uk/STU3/StructureDefinition/CareConnect-Specimen-1"
                    ]
                },
                "type": {
                    "coding": [
                        {
                            "display": "Faeces"
                        }
                    ]
                },
                "subject": {
                    "reference": "urn:uuid:eb843ee3-3b81-4b4a-86fe-545853f8b8d9"
                }
            }
        },
        {
            "fullUrl": "urn:uuid:0656a58c-ded9-438c-a24a-a370a00ee95f",
            "resource": {
                "resourceType": "Observation",
                "id": "0656a58c-ded9-438c-a24a-a370a00ee95f",
                "meta": {
                    "profile": [
                        "https://fhir.hl7.org.uk/STU3/StructureDefinition/CareConnect-Observation-1"
                    ]
                },
                "status": "unknown",
                "code": {
                    "coding": [
                        {
                            "system": "http://snomed.info/sct",
                            "code": "368481000000103",
                            "display": "Bowel cancer screening result"
                        }
                    ]
                },
                "subject": {
                    "reference": "urn:uuid:eb843ee3-3b81-4b4a-86fe-545853f8b8d9"
                },
                "performer": [
                    {
                        "reference": "urn:uuid:f6419294-fac2-4b93-a1f9-db4044dc47b8"
                    },
                    {
                        "reference": "urn:uuid:e2d2f3c0-c56c-4a5b-9435-dd679bc59760"
                    }
                ],
                "valueCodeableConcept": {
                    "coding": [
                        {
                            "system": "http://snomed.info/sct",
                            "code": "375211000000108",
                            "display": "Bowel cancer screening programme FOB test normal (finding)"
                        }
                    ]
                },
                "comment": "Normal. Sent following an initial single Negative result or following 2 Negative results after an initial Weak Positive",
                "specimen": {
                    "reference": "urn:uuid:bde2396b-ff66-423b-a502-cf1e5e5af4b8"
                },
                "referenceRange": [
                    {
                        "low": {
                            "value": 13.3,
                            "unit": "g/dl"
                        },
                        "high": {
                            "value": 16.7,
                            "unit": "g/dl"
                        }
                    }
                ]
            }
        }
    ]
}