{
    "resourceType": "Bundle",
    "id": "1af2b8c1-e230-4981-abcf-ee35c5530075",
    "meta": {
        "lastUpdated": "2021-05-31T13:04:58.884+01:00",
        "profile": [
            "https://fhir.nhs.uk/STU3/StructureDefinition/ITK-Message-Bundle-1"
        ]
    },
    "identifier": {
        "system": "https://tools.ietf.org/html/rfc4122",
        "value": "3bdb4ae1-64df-428a-97f3-11dc11295f6b"
    },
    "type": "message",
    "entry": [
        {
            "fullUrl": "urn:uuid:3bc0b24d-1d65-41e0-8851-0fd26d6cc740",
            "resource": {
                "resourceType": "MessageHeader",
                "id": "3bc0b24d-1d65-41e0-8851-0fd26d6cc740",
                "meta": {
                    "profile": [
                        "https://fhir.nhs.uk/STU3/StructureDefinition/ITK-MessageHeader-2"
                    ]
                },
                "extension": [
                    {
                        "url": "https://fhir.nhs.uk/STU3/StructureDefinition/Extension-ITK-MessageHandling-2",
                        "extension": [
                            {
                                "url": "BusAckRequested",
                                "valueBoolean": true
                            },
                            {
                                "url": "InfAckRequested",
                                "valueBoolean": true
                            },
                            {
                                "url": "RecipientType",
                                "valueCoding": {
                                    "system": "https://fhir.nhs.uk/STU3/CodeSystem/ITK-RecipientType-1",
                                    "code": "FA",
                                    "display": "For Action"
                                }
                            },
                            {
                                "url": "SenderReference",
                                "valueString": "None"
                            },
                            {
                                "url": "LocalExtension",
                                "valueString": "None"
                            }
                        ]
                    }
                ],
                "event": {
                    "system": "https://fhir.nhs.uk/STU3/CodeSystem/ITK-MessageEvent-2",
                    "code": "ITK012M",
                    "display": "ITK National Pathology"
                },
                "receiver": {
                    "reference": "urn:uuid:eca54c34-e100-4911-890a-5d61beb09a36"
                },
                "sender": {
                    "reference": "urn:uuid:55447c1d-53f6-4c0b-8447-1f7e8f44344b"
                },
                "timestamp": "2009-11-13T15:19:00.000+00:00",
                "source": {
                    "endpoint": "lab_results_mailbox"
                },
                "responsible": {
                    "reference": "urn:uuid:55447c1d-53f6-4c0b-8447-1f7e8f44344b"
                },
                "focus": [
                    {
                        "reference": "urn:uuid:994484a3-2c80-4df9-8eeb-48385a2d2aad"
                    }
                ]
            }
        },
        {
            "fullUrl": "urn:uuid:15a583d8-f9a1-4e0c-9954-fd5509503cf8",
            "resource": {
                "resourceType": "Patient",
                "id": "15a583d8-f9a1-4e0c-9954-fd5509503cf8",
                "meta": {
                    "profile": [
                        "https://fhir.hl7.org.uk/STU3/StructureDefinition/CareConnect-Patient-1"
                    ]
                },
                "identifier": [
                    {
                        "extension": [
                            {
                                "url": "https://fhir.hl7.org.uk/STU3/StructureDefinition/Extension-CareConnect-NHSNumberVerificationStatus-1",
                                "valueCodeableConcept": {
                                    "coding": [
                                        {
                                            "system": "https://fhir.hl7.org.uk/STU3/CodeSystem/CareConnect-NHSNumberVerificationStatus-1",
                                            "code": "01",
                                            "display": "Number present and verified"
                                        }
                                    ]
                                }
                            }
                        ],
                        "system": "https://fhir.nhs.uk/Id/nhs-number",
                        "value": "8982821201"
                    }
                ],
                "name": [
                    {
                        "use": "official",
                        "family": "GRIMSHAW",
                        "given": [
                            "BRETT"
                        ],
                        "prefix": [
                            "CAPT"
                        ]
                    }
                ],
                "gender": "male",
                "birthDate": "1938-02-06",
                "address": [
                    {
                        "line": [
                            "HIGHWOOD BUNGALOW",
                            "EXETER",
                            "DEVON"
                        ],
                        "postalCode": "TQ14 4QJ"
                    }
                ]
            }
        },
        {
            "fullUrl": "urn:uuid:18eb8ff6-7362-4f79-aa87-5f7426d5c251",
            "resource": {
                "resourceType": "Practitioner",
                "id": "18eb8ff6-7362-4f79-aa87-5f7426d5c251",
                "meta": {
                    "profile": [
                        "https://fhir.hl7.org.uk/STU3/StructureDefinition/CareConnect-Practitioner-1"
                    ]
                },
                "name": [
                    {
                        "text": "BCSP Hub Manager"
                    }
                ]
            }
        },
        {
            "fullUrl": "urn:uuid:eca54c34-e100-4911-890a-5d61beb09a36",
            "resource": {
                "resourceType": "Organization",
                "id": "eca54c34-e100-4911-890a-5d61beb09a36",
                "meta": {
                    "profile": [
                        "https://fhir.hl7.org.uk/STU3/StructureDefinition/CareConnect-Organization-1"
                    ]
                }
            }
        },
        {
            "fullUrl": "urn:uuid:22c9a629-90e0-4ab7-bdf0-62dd2265a200",
            "resource": {
                "resourceType": "Practitioner",
                "id": "22c9a629-90e0-4ab7-bdf0-62dd2265a200",
                "meta": {
                    "profile": [
                        "https://fhir.hl7.org.uk/STU3/StructureDefinition/CareConnect-Practitioner-1"
                    ]
                }
            }
        },
        {
            "fullUrl": "urn:uuid:55447c1d-53f6-4c0b-8447-1f7e8f44344b",
            "resource": {
                "resourceType": "Organization",
                "id": "55447c1d-53f6-4c0b-8447-1f7e8f44344b",
                "meta": {
                    "profile": [
                        "https://fhir.hl7.org.uk/STU3/StructureDefinition/CareConnect-Organization-1"
                    ]
                },
                "type": [
                    {
                        "coding": [
                            {
                                "code": "dept",
                                "display": "UNKNOWN"
                            }
                        ]
                    }
                ],
                "name": "Southern Bowel Cancer Screening Programme Hub"
            }
        },
        {
            "fullUrl": "urn:uuid:90113a05-f03d-43e3-bb0d-9e8c92aed656",
            "resource": {
                "resourceType": "ProcedureRequest",
                "id": "90113a05-f03d-43e3-bb0d-9e8c92aed656",
                "meta": {
                    "profile": [
                        "https://fhir.hl7.org.uk/STU3/StructureDefinition/CareConnect-ProcedureRequest-1"
                    ]
                },
                "status": "active",
                "intent": "order",
                "code": {
                    "coding": [
                        {
                            "system": "http://snomed.info/sct",
                            "code": "15220000",
                            "display": "Laboratory test (procedure)"
                        }
                    ]
                },
                "subject": {
                    "reference": "urn:uuid:15a583d8-f9a1-4e0c-9954-fd5509503cf8"
                },
                "requester": {
                    "agent": {
                        "reference": "urn:uuid:18eb8ff6-7362-4f79-aa87-5f7426d5c251"
                    },
                    "onBehalfOf": {
                        "reference": "urn:uuid:eca54c34-e100-4911-890a-5d61beb09a36"
                    }
                },
                "performer": {
                    "reference": "urn:uuid:22c9a629-90e0-4ab7-bdf0-62dd2265a200"
                }
            }
        },
        {
            "fullUrl": "urn:uuid:994484a3-2c80-4df9-8eeb-48385a2d2aad",
            "resource": {
                "resourceType": "DiagnosticReport",
                "id": "994484a3-2c80-4df9-8eeb-48385a2d2aad",
                "meta": {
                    "profile": [
                        "https://fhir.hl7.org.uk/STU3/StructureDefinition/CareConnect-DiagnosticReport-1"
                    ]
                },
                "identifier": [
                    {
                        "system": "https://tools.ietf.org/html/rfc4122",
                        "value": "34/1"
                    }
                ],
                "basedOn": [
                    {
                        "reference": "urn:uuid:90113a05-f03d-43e3-bb0d-9e8c92aed656"
                    }
                ],
                "status": "unknown",
                "code": {
                    "coding": [
                        {
                            "system": "http://snomed.info/sct",
                            "code": "721981007",
                            "display": "Diagnostic studies report"
                        }
                    ]
                },
                "subject": {
                    "reference": "urn:uuid:15a583d8-f9a1-4e0c-9954-fd5509503cf8"
                },
                "issued": "2009-11-10T11:45:00.000+00:00",
                "performer": [
                    {
                        "actor": {
                            "reference": "urn:uuid:55447c1d-53f6-4c0b-8447-1f7e8f44344b"
                        }
                    },
                    {
                        "actor": {
                            "reference": "urn:uuid:22c9a629-90e0-4ab7-bdf0-62dd2265a200"
                        }
                    }
                ],
                "specimen": [
                    {
                        "reference": "urn:uuid:5036abc2-2bd8-44b7-b06e-366e8d04cc99"
                    }
                ],
                "result": [
                    {
                        "reference": "urn:uuid:d9516bd6-e602-46df-8205-0dd67ca5aa40"
                    }
                ]
            }
        },
        {
            "fullUrl": "urn:uuid:5036abc2-2bd8-44b7-b06e-366e8d04cc99",
            "resource": {
                "resourceType": "Specimen",
                "id": "5036abc2-2bd8-44b7-b06e-366e8d04cc99",
                "meta": {
                    "profile": [
                        "https://fhir.hl7.org.uk/STU3/StructureDefinition/CareConnect-Specimen-1"
                    ]
                },
                "type": {
                    "coding": [
                        {
                            "system": "http://snomed.info/sct",
                            "display": "Faeces"
                        }
                    ]
                },
                "subject": {
                    "reference": "urn:uuid:15a583d8-f9a1-4e0c-9954-fd5509503cf8"
                }
            }
        },
        {
            "fullUrl": "urn:uuid:d9516bd6-e602-46df-8205-0dd67ca5aa40",
            "resource": {
                "resourceType": "Observation",
                "id": "d9516bd6-e602-46df-8205-0dd67ca5aa40",
                "meta": {
                    "profile": [
                        "https://fhir.hl7.org.uk/STU3/StructureDefinition/CareConnect-Observation-1"
                    ]
                },
                "status": "unknown",
                "code": {
                    "coding": [
                        {
                            "system": "http://snomed.info/sct",
                            "code": "368481000000103",
                            "display": "Bowel cancer screening result"
                        }
                    ]
                },
                "subject": {
                    "reference": "urn:uuid:15a583d8-f9a1-4e0c-9954-fd5509503cf8"
                },
                "performer": [
                    {
                        "reference": "urn:uuid:55447c1d-53f6-4c0b-8447-1f7e8f44344b"
                    },
                    {
                        "reference": "urn:uuid:22c9a629-90e0-4ab7-bdf0-62dd2265a200"
                    }
                ],
                "valueCodeableConcept": {
                    "coding": [
                        {
                            "system": "http://snomed.info/sct",
                            "code": "375211000000108",
                            "display": "Bowel cancer screening programme FOB test normal (finding)"
                        }
                    ]
                },
                "comment": "Normal. Sent following an initial single Negative result or following 2 Negative results after an initial Weak Positive",
                "specimen": {
                    "reference": "urn:uuid:5036abc2-2bd8-44b7-b06e-366e8d04cc99"
                },
                "referenceRange": [
                    {
                        "low": {
                            "value": 13.3,
                            "unit": "g/dl"
                        },
                        "high": {
                            "value": 16.7,
                            "unit": "g/dl"
                        }
                    }
                ]
            }
        }
    ]
}