{
    "resourceType": "Bundle",
    "id": "e055842d-494f-4c64-acc7-db1ea803fd82",
    "meta": {
        "lastUpdated": "2021-06-07T12:25:18.131+01:00",
        "profile": [ "https://fhir.nhs.uk/STU3/StructureDefinition/ITK-Message-Bundle-1" ]
    },
    "identifier": {
        "system": "https://tools.ietf.org/html/rfc4122",
        "value": "168083e8-a8d2-4d14-aafd-70da410ff892"
    },
    "type": "message",
    "entry": [ {
        "fullUrl": "urn:uuid:bfeecf10-57e8-4d7f-b06d-eb3ab47a6b45",
        "resource": {
            "resourceType": "MessageHeader",
            "id": "bfeecf10-57e8-4d7f-b06d-eb3ab47a6b45",
            "meta": {
                "profile": [ "https://fhir.nhs.uk/STU3/StructureDefinition/ITK-MessageHeader-2" ]
            },
            "extension": [ {
                "url": "https://fhir.nhs.uk/STU3/StructureDefinition/Extension-ITK-MessageHandling-2",
                "extension": [ {
                    "url": "BusAckRequested",
                    "valueBoolean": true
                }, {
                    "url": "InfAckRequested",
                    "valueBoolean": true
                }, {
                    "url": "RecipientType",
                    "valueCoding": {
                        "system": "https://fhir.nhs.uk/STU3/CodeSystem/ITK-RecipientType-1",
                        "code": "FA",
                        "display": "For Action"
                    }
                }, {
                    "url": "SenderReference",
                    "valueString": "None"
                }, {
                    "url": "LocalExtension",
                    "valueString": "None"
                } ]
            } ],
            "event": {
                "system": "https://fhir.nhs.uk/STU3/CodeSystem/ITK-MessageEvent-2",
                "code": "ITK012M",
                "display": "ITK National Pathology"
            },
            "receiver": {
                "reference": "urn:uuid:7b169212-0b48-4428-8365-d215bc32e6af"
            },
            "sender": {
                "reference": "urn:uuid:7a73e9e5-774b-42c4-b1ef-8ddb8ee47acc"
            },
            "timestamp": "2009-11-13T15:19:00.000+00:00",
            "source": {
                "endpoint": "lab_results_mailbox"
            },
            "responsible": {
                "reference": "urn:uuid:7a73e9e5-774b-42c4-b1ef-8ddb8ee47acc"
            },
            "focus": [ {
                "reference": "urn:uuid:e2aa88b4-aac4-436f-9ff2-413f124ed813"
            } ]
        }
    }, {
        "fullUrl": "urn:uuid:628b79ee-b345-42f6-a084-2996d45dfc83",
        "resource": {
            "resourceType": "Patient",
            "id": "628b79ee-b345-42f6-a084-2996d45dfc83",
            "meta": {
                "profile": [ "https://fhir.hl7.org.uk/STU3/StructureDefinition/CareConnect-Patient-1" ]
            },
            "identifier": [ {
                "extension": [ {
                    "url": "https://fhir.hl7.org.uk/STU3/StructureDefinition/Extension-CareConnect-NHSNumberVerificationStatus-1",
                    "valueCodeableConcept": {
                        "coding": [ {
                            "system": "https://fhir.hl7.org.uk/STU3/CodeSystem/CareConnect-NHSNumberVerificationStatus-1",
                            "code": "01",
                            "display": "Number present and verified"
                        } ]
                    }
                } ],
                "system": "https://fhir.nhs.uk/Id/nhs-number",
                "value": "8982821201"
            } ],
            "name": [ {
                "use": "official",
                "family": "GRIMSHAW",
                "given": [ "BRETT" ],
                "prefix": [ "CAPT" ]
            } ],
            "gender": "male",
            "birthDate": "1938-02-06",
            "address": [ {
                "line": [ "HIGHWOOD BUNGALOW", "EXETER", "DEVON" ],
                "postalCode": "TQ14 4QJ"
            } ]
        }
    }, {
        "fullUrl": "urn:uuid:f16fcb02-9626-4d11-be4b-df1727c81d13",
        "resource": {
            "resourceType": "Practitioner",
            "id": "f16fcb02-9626-4d11-be4b-df1727c81d13",
            "meta": {
                "profile": [ "https://fhir.hl7.org.uk/STU3/StructureDefinition/CareConnect-Practitioner-1" ]
            },
            "name": [ {
                "text": "BCSP Hub Manager"
            } ]
        }
    }, {
        "fullUrl": "urn:uuid:7b169212-0b48-4428-8365-d215bc32e6af",
        "resource": {
            "resourceType": "Organization",
            "id": "7b169212-0b48-4428-8365-d215bc32e6af",
            "meta": {
                "profile": [ "https://fhir.hl7.org.uk/STU3/StructureDefinition/CareConnect-Organization-1" ]
            }
        }
    }, {
        "fullUrl": "urn:uuid:3b9872b6-9ff3-435d-a674-902632627887",
        "resource": {
            "resourceType": "Practitioner",
            "id": "3b9872b6-9ff3-435d-a674-902632627887",
            "meta": {
                "profile": [ "https://fhir.hl7.org.uk/STU3/StructureDefinition/CareConnect-Practitioner-1" ]
            }
        }
    }, {
        "fullUrl": "urn:uuid:7a73e9e5-774b-42c4-b1ef-8ddb8ee47acc",
        "resource": {
            "resourceType": "Organization",
            "id": "7a73e9e5-774b-42c4-b1ef-8ddb8ee47acc",
            "meta": {
                "profile": [ "https://fhir.hl7.org.uk/STU3/StructureDefinition/CareConnect-Organization-1" ]
            },
            "type": [ {
                "coding": [ {
                    "code": "dept",
                    "display": "UNKNOWN"
                } ]
            } ],
            "name": "Southern Bowel Cancer Screening Programme Hub"
        }
    }, {
        "fullUrl": "urn:uuid:d0ad3517-c1a4-4404-846d-87df00e57008",
        "resource": {
            "resourceType": "ProcedureRequest",
            "id": "d0ad3517-c1a4-4404-846d-87df00e57008",
            "meta": {
                "profile": [ "https://fhir.hl7.org.uk/STU3/StructureDefinition/CareConnect-ProcedureRequest-1" ]
            },
            "status": "active",
            "intent": "order",
            "code": {
                "coding": [ {
                    "system": "http://snomed.info/sct",
                    "code": "15220000",
                    "display": "Laboratory test (procedure)"
                } ]
            },
            "subject": {
                "reference": "urn:uuid:628b79ee-b345-42f6-a084-2996d45dfc83"
            },
            "requester": {
                "agent": {
                    "reference": "urn:uuid:f16fcb02-9626-4d11-be4b-df1727c81d13"
                },
                "onBehalfOf": {
                    "reference": "urn:uuid:7b169212-0b48-4428-8365-d215bc32e6af"
                }
            },
            "performer": {
                "reference": "urn:uuid:3b9872b6-9ff3-435d-a674-902632627887"
            }
        }
    }, {
        "fullUrl": "urn:uuid:e2aa88b4-aac4-436f-9ff2-413f124ed813",
        "resource": {
            "resourceType": "DiagnosticReport",
            "id": "e2aa88b4-aac4-436f-9ff2-413f124ed813",
            "meta": {
                "profile": [ "https://fhir.hl7.org.uk/STU3/StructureDefinition/CareConnect-DiagnosticReport-1" ]
            },
            "identifier": [ {
                "system": "https://tools.ietf.org/html/rfc4122",
                "value": "34/1"
            } ],
            "basedOn": [ {
                "reference": "urn:uuid:d0ad3517-c1a4-4404-846d-87df00e57008"
            } ],
            "status": "unknown",
            "code": {
                "coding": [ {
                    "system": "http://snomed.info/sct",
                    "code": "721981007",
                    "display": "Diagnostic studies report"
                } ]
            },
            "subject": {
                "reference": "urn:uuid:628b79ee-b345-42f6-a084-2996d45dfc83"
            },
            "issued": "2009-11-10T11:45:00.000+00:00",
            "performer": [ {
                "actor": {
                    "reference": "urn:uuid:7a73e9e5-774b-42c4-b1ef-8ddb8ee47acc"
                }
            }, {
                "actor": {
                    "reference": "urn:uuid:3b9872b6-9ff3-435d-a674-902632627887"
                }
            } ],
            "specimen": [ {
                "reference": "urn:uuid:b356028b-cdb9-48c9-b33c-1660856971f2"
            } ],
            "result": [ {
                "reference": "urn:uuid:7c965a22-6c8e-4cf4-bd48-abe7d1ecf74e"
            } ]
        }
    }, {
        "fullUrl": "urn:uuid:b356028b-cdb9-48c9-b33c-1660856971f2",
        "resource": {
            "resourceType": "Specimen",
            "id": "b356028b-cdb9-48c9-b33c-1660856971f2",
            "meta": {
                "profile": [ "https://fhir.hl7.org.uk/STU3/StructureDefinition/CareConnect-Specimen-1" ]
            },
            "type": {
                "coding": [ {
                    "system": "http://snomed.info/sct",
                    "display": "Faeces"
                } ]
            },
            "subject": {
                "reference": "urn:uuid:628b79ee-b345-42f6-a084-2996d45dfc83"
            }
        }
    }, {
        "fullUrl": "urn:uuid:7c965a22-6c8e-4cf4-bd48-abe7d1ecf74e",
        "resource": {
            "resourceType": "Observation",
            "id": "7c965a22-6c8e-4cf4-bd48-abe7d1ecf74e",
            "meta": {
                "profile": [ "https://fhir.hl7.org.uk/STU3/StructureDefinition/CareConnect-Observation-1" ]
            },
            "status": "unknown",
            "code": {
                "coding": [ {
                    "system": "http://snomed.info/sct",
                    "code": "368481000000103",
                    "display": "Bowel cancer screening result"
                } ]
            },
            "subject": {
                "reference": "urn:uuid:628b79ee-b345-42f6-a084-2996d45dfc83"
            },
            "performer": [ {
                "reference": "urn:uuid:7a73e9e5-774b-42c4-b1ef-8ddb8ee47acc"
            }, {
                "reference": "urn:uuid:3b9872b6-9ff3-435d-a674-902632627887"
            } ],
            "valueCodeableConcept": {
                "coding": [ {
                    "system": "http://snomed.info/sct",
                    "code": "375211000000108",
                    "display": "Bowel cancer screening programme FOB test normal (finding)"
                } ]
            },
            "comment": "Normal. Sent following an initial single Negative result or following 2 Negative results after an initial Weak Positive",
            "specimen": {
                "reference": "urn:uuid:b356028b-cdb9-48c9-b33c-1660856971f2"
            },
            "referenceRange": [ {
                "low": {
                    "value": 13.3,
                    "unit": "g/dl"
                },
                "high": {
                    "value": 16.7,
                    "unit": "g/dl"
                }
            } ]
        }
    } ]
}