{
  "resourceType": "Bundle",
  "id": "a169ea47-9479-4156-a525-8dad92aefb51",
  "meta": {
    "lastUpdated": "2021-03-19T15:37:04.332+00:00",
    "profile": [
      "https://fhir.nhs.uk/STU3/StructureDefinition/ITK-Message-Bundle-1"
    ]
  },
  "identifier": {
    "system": "https://tools.ietf.org/html/rfc4122",
    "value": "048acab9-cdd2-476c-a372-d8ca8899476b"
  },
  "type": "message",
  "entry": [
    {
      "fullUrl": "urn:uuid:45223130-c892-4226-b38a-b04dfdd24249",
      "resource": {
        "resourceType": "Patient",
        "id": "45223130-c892-4226-b38a-b04dfdd24249",
        "identifier": [
          {
            "system": "https://fhir.nhs.uk/Id/nhs-number",
            "value": "7000000007"
          }
        ],
        "name": [
          {
            "family": "MILLER",
            "given": [
              "WINDY",
              "BRIAN"
            ],
            "prefix": [
              "MR"
            ]
          }
        ],
        "gender": "male",
        "birthDate": "1946-09-18",
        "address": [
          {
            "line": [
              "THE WINDMILL",
              "WINDMILL HILL"
            ],
            "postalCode": "PL1 1AA"
          }
        ]
      }
    },
    {
      "fullUrl": "urn:uuid:2e4d977a-53c6-4ee6-8330-cd812db56fd8",
      "resource": {
        "resourceType": "Organization",
        "id": "2e4d977a-53c6-4ee6-8330-cd812db56fd8",
        "identifier": [
          {
            "system": "https://fhir.nhs.uk/Id/ods-organization-code",
            "value": "REF00"
          }
        ],
        "type": [
          {
            "coding": [
              {
                "code": "dept",
                "display": "TRELISKE HAE/CH"
              }
            ]
          }
        ]
      }
    },
    {
      "fullUrl": "urn:uuid:86746f3a-5084-411c-a21a-8bccb2e42fb3",
      "resource": {
        "resourceType": "ProcedureRequest",
        "id": "86746f3a-5084-411c-a21a-8bccb2e42fb3",
        "status": "unknown",
        "intent": "order",
        "code": {
          "text": "unknown"
        },
        "subject": {
          "reference": "urn:uuid:45223130-c892-4226-b38a-b04dfdd24249"
        },
        "performer": {
          "reference": "urn:uuid:2e4d977a-53c6-4ee6-8330-cd812db56fd8"
        },
        "note": [
          {
            "text": "MICROANEURYSM R EYE"
          }
        ]
      }
    },
    {
      "fullUrl": "urn:uuid:e84566c5-3f9f-4b54-b808-acf837bf9486",
      "resource": {
        "resourceType": "DiagnosticReport",
        "id": "e84566c5-3f9f-4b54-b808-acf837bf9486",
        "identifier": [
          {
            "value": "428090/1"
          }
        ],
        "basedOn": [
          {
            "reference": "urn:uuid:86746f3a-5084-411c-a21a-8bccb2e42fb3"
          }
        ],
        "status": "unknown",
        "code": {
          "coding": [
            {
              "system": "http://snomed.info/sct",
              "code": "721981007",
              "display": "Diagnostic studies report"
            }
          ]
        },
        "subject": {
          "reference": "urn:uuid:45223130-c892-4226-b38a-b04dfdd24249"
        },
        "issued": "2003-03-04T17:14:00.000+00:00",
        "performer": [
          {
            "actor": {
              "reference": "urn:uuid:2e4d977a-53c6-4ee6-8330-cd812db56fd8"
            }
          }
        ]
      }
    }
  ]
}