{
    "resourceType": "Bundle",
    "id": "53d6e720-8b7c-432f-8c79-29945ca68b14",
    "meta": {
        "lastUpdated": "2021-04-22T13:15:31.666+02:00",
        "profile": [
            "https://fhir.nhs.uk/STU3/StructureDefinition/ITK-Message-Bundle-1"
        ]
    },
    "identifier": {
        "system": "https://tools.ietf.org/html/rfc4122",
        "value": "3a9cf322-7eaf-43bd-bee2-645a3df4e18f"
    },
    "type": "message",
    "entry": [
        {
            "fullUrl": "urn:uuid:7acb783e-1b38-41ff-9b84-f15c78c4b61b",
            "resource": {
                "resourceType": "MessageHeader",
                "id": "7acb783e-1b38-41ff-9b84-f15c78c4b61b",
                "meta": {
                    "profile": [
                        "https://fhir.nhs.uk/STU3/StructureDefinition/ITK-MessageHeader-2"
                    ]
                },
                "extension": [
                    {
                        "url": "https://fhir.nhs.uk/STU3/StructureDefinition/Extension-ITK-MessageHandling-2",
                        "extension": [
                            {
                                "url": "BusAckRequested",
                                "valueBoolean": true
                            },
                            {
                                "url": "InfAckRequested",
                                "valueBoolean": true
                            },
                            {
                                "url": "RecipientType",
                                "valueCoding": {
                                    "system": "https://fhir.nhs.uk/STU3/CodeSystem/ITK-RecipientType-1",
                                    "code": "FA",
                                    "display": "For Action"
                                }
                            },
                            {
                                "url": "SenderReference",
                                "valueString": "None"
                            },
                            {
                                "url": "LocalExtension",
                                "valueString": "None"
                            }
                        ]
                    }
                ],
                "event": {
                    "system": "https://fhir.nhs.uk/STU3/CodeSystem/ITK-MessageEvent-2",
                    "code": "ITK012M",
                    "display": "ITK National Pathology"
                },
                "receiver": {
                    "reference": "urn:uuid:b4204694-f74d-4795-9386-992ba1cb314f"
                },
                "sender": {
                    "reference": "urn:uuid:3ca6d34e-a911-4cd8-b234-4379333b17eb"
                },
                "source": {
                    "endpoint": "lab_results_mailbox"
                },
                "responsible": {
                    "reference": "urn:uuid:3ca6d34e-a911-4cd8-b234-4379333b17eb"
                },
                "focus": [
                    {
                        "reference": "urn:uuid:c9b438e0-421a-4dc6-9f4b-e9f0bf59422c"
                    }
                ]
            }
        },
        {
            "fullUrl": "urn:uuid:209a10d5-088e-4418-9a80-0035d46b23a8",
            "resource": {
                "resourceType": "Patient",
                "id": "209a10d5-088e-4418-9a80-0035d46b23a8",
                "meta": {
                    "profile": [
                        "https://fhir.hl7.org.uk/STU3/StructureDefinition/CareConnect-Patient-1"
                    ]
                },
                "identifier": [
                    {
                        "id": "C905711"
                    }
                ],
                "name": [
                    {
                        "family": "PITSTOP",
                        "given": [
                            "PENELOPE",
                            "JANE"
                        ]
                    }
                ],
                "gender": "female",
                "birthDate": "1950-02-15",
                "address": [
                    {
                        "line": [
                            "HILLTOP FARM",
                            "TRUMPTON"
                        ]
                    }
                ]
            }
        },
        {
            "fullUrl": "urn:uuid:916fda8b-b941-4e47-af23-a112ca52a247",
            "resource": {
                "resourceType": "Practitioner",
                "id": "916fda8b-b941-4e47-af23-a112ca52a247",
                "meta": {
                    "profile": [
                        "https://fhir.hl7.org.uk/STU3/StructureDefinition/CareConnect-Practitioner-1"
                    ]
                },
                "identifier": [
                    {
                        "system": "https://fhir.nhs.uk/Id/sds-user-id",
                        "value": "G9304284"
                    }
                ],
                "name": [
                    {
                        "text": "DR A DOCTOR"
                    }
                ]
            }
        },
        {
            "fullUrl": "urn:uuid:b4204694-f74d-4795-9386-992ba1cb314f",
            "resource": {
                "resourceType": "Organization",
                "id": "b4204694-f74d-4795-9386-992ba1cb314f",
                "meta": {
                    "profile": [
                        "https://fhir.hl7.org.uk/STU3/StructureDefinition/CareConnect-Organization-1"
                    ]
                },
                "identifier": [
                    {
                        "system": "https://fhir.nhs.uk/Id/ods-organization-code",
                        "value": "L99999"
                    }
                ]
            }
        },
        {
            "fullUrl": "urn:uuid:285c1e6c-7ed8-4cfd-81ce-75e2414f4025",
            "resource": {
                "resourceType": "Practitioner",
                "id": "285c1e6c-7ed8-4cfd-81ce-75e2414f4025",
                "meta": {
                    "profile": [
                        "https://fhir.hl7.org.uk/STU3/StructureDefinition/CareConnect-Practitioner-1"
                    ]
                }
            }
        },
        {
            "fullUrl": "urn:uuid:3ca6d34e-a911-4cd8-b234-4379333b17eb",
            "resource": {
                "resourceType": "Organization",
                "id": "3ca6d34e-a911-4cd8-b234-4379333b17eb",
                "meta": {
                    "profile": [
                        "https://fhir.hl7.org.uk/STU3/StructureDefinition/CareConnect-Organization-1"
                    ]
                },
                "identifier": [
                    {
                        "system": "https://fhir.nhs.uk/Id/ods-organization-code",
                        "value": "REF00"
                    }
                ],
                "type": [
                    {
                        "coding": [
                            {
                                "code": "dept",
                                "display": "RCHT CLIN IMG"
                            }
                        ]
                    }
                ]
            }
        },
        {
            "fullUrl": "urn:uuid:f4481604-c3e1-486c-97e3-bbe6d78fc8b2",
            "resource": {
                "resourceType": "ProcedureRequest",
                "id": "f4481604-c3e1-486c-97e3-bbe6d78fc8b2",
                "meta": {
                    "profile": [
                        "https://fhir.hl7.org.uk/STU3/StructureDefinition/CareConnect-ProcedureRequest-1"
                    ]
                },
                "intent": "order",
                "code": {
                    "text": "unknown"
                },
                "subject": {
                    "reference": "urn:uuid:209a10d5-088e-4418-9a80-0035d46b23a8"
                },
                "requester": {
                    "agent": {
                        "reference": "urn:uuid:916fda8b-b941-4e47-af23-a112ca52a247"
                    },
                    "onBehalfOf": {
                        "reference": "urn:uuid:b4204694-f74d-4795-9386-992ba1cb314f"
                    }
                },
                "performer": {
                    "reference": "urn:uuid:285c1e6c-7ed8-4cfd-81ce-75e2414f4025"
                }
            }
        },
        {
            "fullUrl": "urn:uuid:c9b438e0-421a-4dc6-9f4b-e9f0bf59422c",
            "resource": {
                "resourceType": "DiagnosticReport",
                "id": "c9b438e0-421a-4dc6-9f4b-e9f0bf59422c",
                "meta": {
                    "profile": [
                        "https://fhir.hl7.org.uk/STU3/StructureDefinition/CareConnect-DiagnosticReport-1"
                    ]
                },
                "identifier": [
                    {
                        "value": "468158/3"
                    }
                ],
                "basedOn": [
                    {
                        "reference": "urn:uuid:f4481604-c3e1-486c-97e3-bbe6d78fc8b2"
                    }
                ],
                "status": "unknown",
                "code": {
                    "coding": [
                        {
                            "system": "http://snomed.info/sct",
                            "code": "721981007",
                            "display": "Diagnostic studies report"
                        }
                    ]
                },
                "subject": {
                    "reference": "urn:uuid:209a10d5-088e-4418-9a80-0035d46b23a8"
                },
                "issued": "2007-03-27T14:13:00.000+02:00",
                "performer": [
                    {
                        "actor": {
                            "reference": "urn:uuid:3ca6d34e-a911-4cd8-b234-4379333b17eb"
                        }
                    },
                    {
                        "actor": {
                            "reference": "urn:uuid:285c1e6c-7ed8-4cfd-81ce-75e2414f4025"
                        }
                    }
                ],
                "specimen": [
                    {
                        "reference": "urn:uuid:bea80e5c-9873-4950-b166-68e5b63c3fdf"
                    }
                ],
                "result": [
                    {
                        "reference": "urn:uuid:ea6b0313-9aa9-4fee-97e5-a023b99fb7e3"
                    }
                ]
            }
        },
        {
            "fullUrl": "urn:uuid:bea80e5c-9873-4950-b166-68e5b63c3fdf",
            "resource": {
                "resourceType": "Specimen",
                "id": "bea80e5c-9873-4950-b166-68e5b63c3fdf",
                "meta": {
                    "profile": [
                        "https://fhir.hl7.org.uk/STU3/StructureDefinition/CareConnect-Specimen-1"
                    ]
                },
                "accessionIdentifier": {
                    "system": "http://lab.acme.org/specimens/2011",
                    "value": "07052525/XR Chest"
                },
                "type": {
                    "coding": [
                        {
                            "system": "http://snomed.info/sct",
                            "code": "T016"
                        }
                    ]
                },
                "subject": {
                    "reference": "urn:uuid:209a10d5-088e-4418-9a80-0035d46b23a8"
                },
                "receivedTime": "2007-03-26T13:37:00+02:00",
                "collection": {
                    "collectedDateTime": "2007-03-26T13:37:00+02:00"
                }
            }
        },
        {
            "fullUrl": "urn:uuid:ea6b0313-9aa9-4fee-97e5-a023b99fb7e3",
            "resource": {
                "resourceType": "Observation",
                "id": "ea6b0313-9aa9-4fee-97e5-a023b99fb7e3",
                "meta": {
                    "profile": [
                        "https://fhir.hl7.org.uk/STU3/StructureDefinition/CareConnect-Observation-1"
                    ]
                },
                "status": "unknown",
                "code": {
                    "coding": [
                        {
                            "display": "IMAGING XR Chest"
                        }
                    ]
                },
                "subject": {
                    "reference": "urn:uuid:209a10d5-088e-4418-9a80-0035d46b23a8"
                },
                "performer": [
                    {
                        "reference": "urn:uuid:3ca6d34e-a911-4cd8-b234-4379333b17eb"
                    },
                    {
                        "reference": "urn:uuid:285c1e6c-7ed8-4cfd-81ce-75e2414f4025"
                    }
                ],
                "comment": "No lung or mediastinal lesion is seen.\nReporter: Dr E E SMITH",
                "specimen": {
                    "reference": "urn:uuid:bea80e5c-9873-4950-b166-68e5b63c3fdf"
                }
            }
        }
    ]
}