{
    "resourceType": "Bundle",
    "id": "210ab235-1fce-498e-8d33-8ae46b6fb2a0",
    "meta": {
        "lastUpdated": "2021-05-31T12:45:45.550+01:00",
        "profile": [
            "https://fhir.nhs.uk/STU3/StructureDefinition/ITK-Message-Bundle-1"
        ]
    },
    "identifier": {
        "system": "https://tools.ietf.org/html/rfc4122",
        "value": "1c4bded0-8689-4d24-859f-a51f8046136e"
    },
    "type": "message",
    "entry": [
        {
            "fullUrl": "urn:uuid:8046cdd9-1ca4-4641-aa2f-3fba2bf729fe",
            "resource": {
                "resourceType": "MessageHeader",
                "id": "8046cdd9-1ca4-4641-aa2f-3fba2bf729fe",
                "meta": {
                    "profile": [
                        "https://fhir.nhs.uk/STU3/StructureDefinition/ITK-MessageHeader-2"
                    ]
                },
                "extension": [
                    {
                        "url": "https://fhir.nhs.uk/STU3/StructureDefinition/Extension-ITK-MessageHandling-2",
                        "extension": [
                            {
                                "url": "BusAckRequested",
                                "valueBoolean": true
                            },
                            {
                                "url": "InfAckRequested",
                                "valueBoolean": true
                            },
                            {
                                "url": "RecipientType",
                                "valueCoding": {
                                    "system": "https://fhir.nhs.uk/STU3/CodeSystem/ITK-RecipientType-1",
                                    "code": "FA",
                                    "display": "For Action"
                                }
                            },
                            {
                                "url": "SenderReference",
                                "valueString": "None"
                            },
                            {
                                "url": "LocalExtension",
                                "valueString": "None"
                            }
                        ]
                    }
                ],
                "event": {
                    "system": "https://fhir.nhs.uk/STU3/CodeSystem/ITK-MessageEvent-2",
                    "code": "ITK012M",
                    "display": "ITK National Pathology"
                },
                "receiver": {
                    "reference": "urn:uuid:9097ab30-36b7-4777-81d8-8f6005274c95"
                },
                "sender": {
                    "reference": "urn:uuid:ce0d393a-3ad5-448a-b14c-03a184e2114d"
                },
                "timestamp": "2003-03-04T23:47:00.000+00:00",
                "source": {
                    "endpoint": "lab_results_mailbox"
                },
                "responsible": {
                    "reference": "urn:uuid:ce0d393a-3ad5-448a-b14c-03a184e2114d"
                },
                "focus": [
                    {
                        "reference": "urn:uuid:de378713-040d-45fc-8d21-5042271757dc"
                    }
                ]
            }
        },
        {
            "fullUrl": "urn:uuid:a79801bb-ff81-439c-a1ef-378020285533",
            "resource": {
                "resourceType": "Patient",
                "id": "a79801bb-ff81-439c-a1ef-378020285533",
                "meta": {
                    "profile": [
                        "https://fhir.hl7.org.uk/STU3/StructureDefinition/CareConnect-Patient-1"
                    ]
                },
                "identifier": [
                    {
                        "extension": [
                            {
                                "url": "https://fhir.hl7.org.uk/STU3/StructureDefinition/Extension-CareConnect-NHSNumberVerificationStatus-1",
                                "valueCodeableConcept": {
                                    "coding": [
                                        {
                                            "system": "https://fhir.hl7.org.uk/STU3/CodeSystem/CareConnect-NHSNumberVerificationStatus-1",
                                            "code": "01",
                                            "display": "Number present and verified"
                                        }
                                    ]
                                }
                            }
                        ],
                        "system": "https://fhir.nhs.uk/Id/nhs-number",
                        "value": "7000000007"
                    }
                ],
                "name": [
                    {
                        "use": "official",
                        "family": "MILLER",
                        "given": [
                            "WINDY",
                            "BRIAN"
                        ],
                        "prefix": [
                            "MR"
                        ]
                    }
                ],
                "gender": "male",
                "birthDate": "1946-09-18",
                "address": [
                    {
                        "line": [
                            "THE WINDMILL",
                            "WINDMILL HILL"
                        ],
                        "postalCode": "PL1 1AA"
                    }
                ]
            }
        },
        {
            "fullUrl": "urn:uuid:80b562a3-76b2-4625-8c88-dfcb3f22e50a",
            "resource": {
                "resourceType": "Practitioner",
                "id": "80b562a3-76b2-4625-8c88-dfcb3f22e50a",
                "meta": {
                    "profile": [
                        "https://fhir.hl7.org.uk/STU3/StructureDefinition/CareConnect-Practitioner-1"
                    ]
                },
                "identifier": [
                    {
                        "system": "https://fhir.nhs.uk/Id/sds-user-id",
                        "value": "G9304284"
                    }
                ],
                "name": [
                    {
                        "text": "DR A DOCTOR"
                    }
                ]
            }
        },
        {
            "fullUrl": "urn:uuid:9097ab30-36b7-4777-81d8-8f6005274c95",
            "resource": {
                "resourceType": "Organization",
                "id": "9097ab30-36b7-4777-81d8-8f6005274c95",
                "meta": {
                    "profile": [
                        "https://fhir.hl7.org.uk/STU3/StructureDefinition/CareConnect-Organization-1"
                    ]
                },
                "identifier": [
                    {
                        "system": "https://fhir.nhs.uk/Id/ods-organization-code",
                        "value": "L99999"
                    }
                ]
            }
        },
        {
            "fullUrl": "urn:uuid:df11f04e-ae1b-4235-a431-67be1b0ea9f2",
            "resource": {
                "resourceType": "Practitioner",
                "id": "df11f04e-ae1b-4235-a431-67be1b0ea9f2",
                "meta": {
                    "profile": [
                        "https://fhir.hl7.org.uk/STU3/StructureDefinition/CareConnect-Practitioner-1"
                    ]
                }
            }
        },
        {
            "fullUrl": "urn:uuid:ce0d393a-3ad5-448a-b14c-03a184e2114d",
            "resource": {
                "resourceType": "Organization",
                "id": "ce0d393a-3ad5-448a-b14c-03a184e2114d",
                "meta": {
                    "profile": [
                        "https://fhir.hl7.org.uk/STU3/StructureDefinition/CareConnect-Organization-1"
                    ]
                },
                "identifier": [
                    {
                        "system": "https://fhir.nhs.uk/Id/ods-organization-code",
                        "value": "REF00"
                    }
                ],
                "type": [
                    {
                        "coding": [
                            {
                                "code": "dept",
                                "display": "TRELISKE HAE/CH"
                            }
                        ]
                    }
                ]
            }
        },
        {
            "fullUrl": "urn:uuid:6abdfac2-7987-4643-8e2c-d8aadc225834",
            "resource": {
                "resourceType": "ProcedureRequest",
                "id": "6abdfac2-7987-4643-8e2c-d8aadc225834",
                "meta": {
                    "profile": [
                        "https://fhir.hl7.org.uk/STU3/StructureDefinition/CareConnect-ProcedureRequest-1"
                    ]
                },
                "status": "unknown",
                "intent": "order",
                "code": {
                    "coding": [
                        {
                            "system": "http://snomed.info/sct",
                            "code": "15220000",
                            "display": "Laboratory test (procedure)"
                        }
                    ]
                },
                "subject": {
                    "reference": "urn:uuid:a79801bb-ff81-439c-a1ef-378020285533"
                },
                "requester": {
                    "agent": {
                        "reference": "urn:uuid:80b562a3-76b2-4625-8c88-dfcb3f22e50a"
                    },
                    "onBehalfOf": {
                        "reference": "urn:uuid:9097ab30-36b7-4777-81d8-8f6005274c95"
                    }
                },
                "performer": {
                    "reference": "urn:uuid:df11f04e-ae1b-4235-a431-67be1b0ea9f2"
                },
                "note": [
                    {
                        "text": "MICROANEURYSM R EYE"
                    }
                ]
            }
        },
        {
            "fullUrl": "urn:uuid:de378713-040d-45fc-8d21-5042271757dc",
            "resource": {
                "resourceType": "DiagnosticReport",
                "id": "de378713-040d-45fc-8d21-5042271757dc",
                "meta": {
                    "profile": [
                        "https://fhir.hl7.org.uk/STU3/StructureDefinition/CareConnect-DiagnosticReport-1"
                    ]
                },
                "identifier": [
                    {
                        "system": "https://tools.ietf.org/html/rfc4122",
                        "value": "428090/1"
                    }
                ],
                "basedOn": [
                    {
                        "reference": "urn:uuid:6abdfac2-7987-4643-8e2c-d8aadc225834"
                    }
                ],
                "status": "unknown",
                "code": {
                    "coding": [
                        {
                            "system": "http://snomed.info/sct",
                            "code": "721981007",
                            "display": "Diagnostic studies report"
                        }
                    ]
                },
                "subject": {
                    "reference": "urn:uuid:a79801bb-ff81-439c-a1ef-378020285533"
                },
                "issued": "2003-03-04T17:14:00.000+00:00",
                "performer": [
                    {
                        "actor": {
                            "reference": "urn:uuid:ce0d393a-3ad5-448a-b14c-03a184e2114d"
                        }
                    },
                    {
                        "actor": {
                            "reference": "urn:uuid:df11f04e-ae1b-4235-a431-67be1b0ea9f2"
                        }
                    }
                ],
                "specimen": [
                    {
                        "reference": "urn:uuid:179e7135-2873-4f5e-a7c9-a831bc4a7a54"
                    }
                ],
                "result": [
                    {
                        "reference": "urn:uuid:c8126ec6-1f44-4b47-95be-e2a890adf037"
                    }
                ]
            }
        },
        {
            "fullUrl": "urn:uuid:179e7135-2873-4f5e-a7c9-a831bc4a7a54",
            "resource": {
                "resourceType": "Specimen",
                "id": "179e7135-2873-4f5e-a7c9-a831bc4a7a54",
                "meta": {
                    "profile": [
                        "https://fhir.hl7.org.uk/STU3/StructureDefinition/CareConnect-Specimen-1"
                    ]
                },
                "accessionIdentifier": {
                    "system": "http://lab.acme.org/specimens/2011",
                    "value": "CH30304/6285Q"
                },
                "type": {
                    "coding": [
                        {
                            "system": "http://snomed.info/sct",
                            "code": "T026"
                        }
                    ]
                },
                "subject": {
                    "reference": "urn:uuid:a79801bb-ff81-439c-a1ef-378020285533"
                },
                "receivedTime": "2003-03-04T15:40:00+00:00",
                "collection": {
                    "collectedDateTime": "2003-03-04T10:30:00+00:00"
                }
            }
        },
        {
            "fullUrl": "urn:uuid:c8126ec6-1f44-4b47-95be-e2a890adf037",
            "resource": {
                "resourceType": "Observation",
                "id": "c8126ec6-1f44-4b47-95be-e2a890adf037",
                "meta": {
                    "profile": [
                        "https://fhir.hl7.org.uk/STU3/StructureDefinition/CareConnect-Observation-1"
                    ]
                },
                "status": "unknown",
                "code": {
                    "coding": [
                        {
                            "system": "http://read.info/readv2",
                            "code": "424.."
                        }
                    ]
                },
                "subject": {
                    "reference": "urn:uuid:a79801bb-ff81-439c-a1ef-378020285533"
                },
                "performer": [
                    {
                        "reference": "urn:uuid:ce0d393a-3ad5-448a-b14c-03a184e2114d"
                    },
                    {
                        "reference": "urn:uuid:df11f04e-ae1b-4235-a431-67be1b0ea9f2"
                    }
                ],
                "specimen": {
                    "reference": "urn:uuid:179e7135-2873-4f5e-a7c9-a831bc4a7a54"
                },
                "related": [
                    {
                        "type": "has-member",
                        "target": {
                            "reference": "urn:uuid:c2b17a58-bf6b-4299-afed-23e0f08d9838"
                        }
                    },
                    {
                        "type": "has-member",
                        "target": {
                            "reference": "urn:uuid:c1b4b5d2-f4af-44fa-91e0-ca2d5aa74caa"
                        }
                    },
                    {
                        "type": "has-member",
                        "target": {
                            "reference": "urn:uuid:c29c3519-4d3a-4179-a4f3-62f3cf74b312"
                        }
                    },
                    {
                        "type": "has-member",
                        "target": {
                            "reference": "urn:uuid:abc63bf5-20f1-4e8b-a559-168d80813d08"
                        }
                    },
                    {
                        "type": "has-member",
                        "target": {
                            "reference": "urn:uuid:8cbb4ee3-f9cf-4da2-880b-58fcc4229d86"
                        }
                    },
                    {
                        "type": "has-member",
                        "target": {
                            "reference": "urn:uuid:060bbaba-8767-439b-8d78-fd1c70ed4315"
                        }
                    },
                    {
                        "type": "has-member",
                        "target": {
                            "reference": "urn:uuid:218251c8-7d44-4378-8637-01f6c6c288ab"
                        }
                    },
                    {
                        "type": "has-member",
                        "target": {
                            "reference": "urn:uuid:e1d130dd-21b5-4991-8b62-192df79b1d0f"
                        }
                    },
                    {
                        "type": "has-member",
                        "target": {
                            "reference": "urn:uuid:9da1114c-ef54-4502-99e0-7ee03f20f4f6"
                        }
                    },
                    {
                        "type": "has-member",
                        "target": {
                            "reference": "urn:uuid:0a66a38d-8635-4631-abfe-d42af55d7120"
                        }
                    },
                    {
                        "type": "has-member",
                        "target": {
                            "reference": "urn:uuid:e1230084-3ec2-499f-8be3-c4bcb1a9cfe5"
                        }
                    },
                    {
                        "type": "has-member",
                        "target": {
                            "reference": "urn:uuid:ad31665d-36d8-4e9d-9cb5-231d959d8385"
                        }
                    }
                ]
            }
        },
        {
            "fullUrl": "urn:uuid:c2b17a58-bf6b-4299-afed-23e0f08d9838",
            "resource": {
                "resourceType": "Observation",
                "id": "c2b17a58-bf6b-4299-afed-23e0f08d9838",
                "meta": {
                    "profile": [
                        "https://fhir.hl7.org.uk/STU3/StructureDefinition/CareConnect-Observation-1"
                    ]
                },
                "status": "unknown",
                "code": {
                    "coding": [
                        {
                            "system": "http://read.info/readv2",
                            "code": "423.."
                        }
                    ]
                },
                "subject": {
                    "reference": "urn:uuid:a79801bb-ff81-439c-a1ef-378020285533"
                },
                "performer": [
                    {
                        "reference": "urn:uuid:ce0d393a-3ad5-448a-b14c-03a184e2114d"
                    },
                    {
                        "reference": "urn:uuid:df11f04e-ae1b-4235-a431-67be1b0ea9f2"
                    }
                ],
                "valueQuantity": {
                    "value": 16.7,
                    "unit": "g/dl"
                },
                "specimen": {
                    "reference": "urn:uuid:179e7135-2873-4f5e-a7c9-a831bc4a7a54"
                },
                "referenceRange": [
                    {
                        "low": {
                            "value": 13.3,
                            "unit": "g/dl"
                        },
                        "high": {
                            "value": 16.7,
                            "unit": "g/dl"
                        }
                    }
                ],
                "related": [
                    {
                        "target": {
                            "reference": "urn:uuid:c8126ec6-1f44-4b47-95be-e2a890adf037"
                        }
                    }
                ]
            }
        },
        {
            "fullUrl": "urn:uuid:c1b4b5d2-f4af-44fa-91e0-ca2d5aa74caa",
            "resource": {
                "resourceType": "Observation",
                "id": "c1b4b5d2-f4af-44fa-91e0-ca2d5aa74caa",
                "meta": {
                    "profile": [
                        "https://fhir.hl7.org.uk/STU3/StructureDefinition/CareConnect-Observation-1"
                    ]
                },
                "status": "unknown",
                "code": {
                    "coding": [
                        {
                            "system": "http://read.info/readv2",
                            "code": "42H.."
                        }
                    ]
                },
                "subject": {
                    "reference": "urn:uuid:a79801bb-ff81-439c-a1ef-378020285533"
                },
                "performer": [
                    {
                        "reference": "urn:uuid:ce0d393a-3ad5-448a-b14c-03a184e2114d"
                    },
                    {
                        "reference": "urn:uuid:df11f04e-ae1b-4235-a431-67be1b0ea9f2"
                    }
                ],
                "valueQuantity": {
                    "value": 5.5,
                    "unit": "X 10-9/l"
                },
                "specimen": {
                    "reference": "urn:uuid:179e7135-2873-4f5e-a7c9-a831bc4a7a54"
                },
                "referenceRange": [
                    {
                        "low": {
                            "value": 3.7,
                            "unit": "X 10-9/l"
                        },
                        "high": {
                            "value": 9.5,
                            "unit": "X 10-9/l"
                        }
                    }
                ],
                "related": [
                    {
                        "target": {
                            "reference": "urn:uuid:c8126ec6-1f44-4b47-95be-e2a890adf037"
                        }
                    }
                ]
            }
        },
        {
            "fullUrl": "urn:uuid:c29c3519-4d3a-4179-a4f3-62f3cf74b312",
            "resource": {
                "resourceType": "Observation",
                "id": "c29c3519-4d3a-4179-a4f3-62f3cf74b312",
                "meta": {
                    "profile": [
                        "https://fhir.hl7.org.uk/STU3/StructureDefinition/CareConnect-Observation-1"
                    ]
                },
                "status": "unknown",
                "code": {
                    "coding": [
                        {
                            "system": "http://read.info/readv2",
                            "code": "42P.."
                        }
                    ]
                },
                "subject": {
                    "reference": "urn:uuid:a79801bb-ff81-439c-a1ef-378020285533"
                },
                "performer": [
                    {
                        "reference": "urn:uuid:ce0d393a-3ad5-448a-b14c-03a184e2114d"
                    },
                    {
                        "reference": "urn:uuid:df11f04e-ae1b-4235-a431-67be1b0ea9f2"
                    }
                ],
                "valueQuantity": {
                    "value": 178,
                    "unit": "X 10-9/l"
                },
                "specimen": {
                    "reference": "urn:uuid:179e7135-2873-4f5e-a7c9-a831bc4a7a54"
                },
                "referenceRange": [
                    {
                        "low": {
                            "value": 150,
                            "unit": "X 10-9/l"
                        },
                        "high": {
                            "value": 400,
                            "unit": "X 10-9/l"
                        }
                    }
                ],
                "related": [
                    {
                        "target": {
                            "reference": "urn:uuid:c8126ec6-1f44-4b47-95be-e2a890adf037"
                        }
                    }
                ]
            }
        },
        {
            "fullUrl": "urn:uuid:abc63bf5-20f1-4e8b-a559-168d80813d08",
            "resource": {
                "resourceType": "Observation",
                "id": "abc63bf5-20f1-4e8b-a559-168d80813d08",
                "meta": {
                    "profile": [
                        "https://fhir.hl7.org.uk/STU3/StructureDefinition/CareConnect-Observation-1"
                    ]
                },
                "status": "unknown",
                "code": {
                    "coding": [
                        {
                            "system": "http://read.info/readv2",
                            "code": "426.."
                        }
                    ]
                },
                "subject": {
                    "reference": "urn:uuid:a79801bb-ff81-439c-a1ef-378020285533"
                },
                "performer": [
                    {
                        "reference": "urn:uuid:ce0d393a-3ad5-448a-b14c-03a184e2114d"
                    },
                    {
                        "reference": "urn:uuid:df11f04e-ae1b-4235-a431-67be1b0ea9f2"
                    }
                ],
                "valueQuantity": {
                    "value": 5.64,
                    "unit": "X 10-12/l"
                },
                "specimen": {
                    "reference": "urn:uuid:179e7135-2873-4f5e-a7c9-a831bc4a7a54"
                },
                "referenceRange": [
                    {
                        "low": {
                            "value": 4.3,
                            "unit": "X 10-12/l"
                        },
                        "high": {
                            "value": 5.7,
                            "unit": "X 10-12/l"
                        }
                    }
                ],
                "related": [
                    {
                        "target": {
                            "reference": "urn:uuid:c8126ec6-1f44-4b47-95be-e2a890adf037"
                        }
                    }
                ]
            }
        },
        {
            "fullUrl": "urn:uuid:8cbb4ee3-f9cf-4da2-880b-58fcc4229d86",
            "resource": {
                "resourceType": "Observation",
                "id": "8cbb4ee3-f9cf-4da2-880b-58fcc4229d86",
                "meta": {
                    "profile": [
                        "https://fhir.hl7.org.uk/STU3/StructureDefinition/CareConnect-Observation-1"
                    ]
                },
                "status": "unknown",
                "code": {
                    "coding": [
                        {
                            "system": "http://read.info/readv2",
                            "code": "4258."
                        }
                    ]
                },
                "subject": {
                    "reference": "urn:uuid:a79801bb-ff81-439c-a1ef-378020285533"
                },
                "performer": [
                    {
                        "reference": "urn:uuid:ce0d393a-3ad5-448a-b14c-03a184e2114d"
                    },
                    {
                        "reference": "urn:uuid:df11f04e-ae1b-4235-a431-67be1b0ea9f2"
                    }
                ],
                "valueQuantity": {
                    "value": 0.49,
                    "unit": "l/l"
                },
                "specimen": {
                    "reference": "urn:uuid:179e7135-2873-4f5e-a7c9-a831bc4a7a54"
                },
                "referenceRange": [
                    {
                        "low": {
                            "value": 0.39,
                            "unit": "l/l"
                        },
                        "high": {
                            "value": 0.50,
                            "unit": "l/l"
                        }
                    }
                ],
                "related": [
                    {
                        "target": {
                            "reference": "urn:uuid:c8126ec6-1f44-4b47-95be-e2a890adf037"
                        }
                    }
                ]
            }
        },
        {
            "fullUrl": "urn:uuid:060bbaba-8767-439b-8d78-fd1c70ed4315",
            "resource": {
                "resourceType": "Observation",
                "id": "060bbaba-8767-439b-8d78-fd1c70ed4315",
                "meta": {
                    "profile": [
                        "https://fhir.hl7.org.uk/STU3/StructureDefinition/CareConnect-Observation-1"
                    ]
                },
                "status": "unknown",
                "code": {
                    "coding": [
                        {
                            "system": "http://read.info/readv2",
                            "code": "42A.."
                        }
                    ]
                },
                "subject": {
                    "reference": "urn:uuid:a79801bb-ff81-439c-a1ef-378020285533"
                },
                "performer": [
                    {
                        "reference": "urn:uuid:ce0d393a-3ad5-448a-b14c-03a184e2114d"
                    },
                    {
                        "reference": "urn:uuid:df11f04e-ae1b-4235-a431-67be1b0ea9f2"
                    }
                ],
                "valueQuantity": {
                    "value": 86.8,
                    "unit": "f/l"
                },
                "specimen": {
                    "reference": "urn:uuid:179e7135-2873-4f5e-a7c9-a831bc4a7a54"
                },
                "referenceRange": [
                    {
                        "low": {
                            "value": 77,
                            "unit": "f/l"
                        },
                        "high": {
                            "value": 98,
                            "unit": "f/l"
                        }
                    }
                ],
                "related": [
                    {
                        "target": {
                            "reference": "urn:uuid:c8126ec6-1f44-4b47-95be-e2a890adf037"
                        }
                    }
                ]
            }
        },
        {
            "fullUrl": "urn:uuid:218251c8-7d44-4378-8637-01f6c6c288ab",
            "resource": {
                "resourceType": "Observation",
                "id": "218251c8-7d44-4378-8637-01f6c6c288ab",
                "meta": {
                    "profile": [
                        "https://fhir.hl7.org.uk/STU3/StructureDefinition/CareConnect-Observation-1"
                    ]
                },
                "status": "unknown",
                "code": {
                    "coding": [
                        {
                            "system": "http://read.info/readv2",
                            "code": "428.."
                        }
                    ]
                },
                "subject": {
                    "reference": "urn:uuid:a79801bb-ff81-439c-a1ef-378020285533"
                },
                "performer": [
                    {
                        "reference": "urn:uuid:ce0d393a-3ad5-448a-b14c-03a184e2114d"
                    },
                    {
                        "reference": "urn:uuid:df11f04e-ae1b-4235-a431-67be1b0ea9f2"
                    }
                ],
                "valueQuantity": {
                    "value": 29.6,
                    "unit": "pg"
                },
                "specimen": {
                    "reference": "urn:uuid:179e7135-2873-4f5e-a7c9-a831bc4a7a54"
                },
                "referenceRange": [
                    {
                        "low": {
                            "value": 27.3,
                            "unit": "pg"
                        },
                        "high": {
                            "value": 32.6,
                            "unit": "pg"
                        }
                    }
                ],
                "related": [
                    {
                        "target": {
                            "reference": "urn:uuid:c8126ec6-1f44-4b47-95be-e2a890adf037"
                        }
                    }
                ]
            }
        },
        {
            "fullUrl": "urn:uuid:e1d130dd-21b5-4991-8b62-192df79b1d0f",
            "resource": {
                "resourceType": "Observation",
                "id": "e1d130dd-21b5-4991-8b62-192df79b1d0f",
                "meta": {
                    "profile": [
                        "https://fhir.hl7.org.uk/STU3/StructureDefinition/CareConnect-Observation-1"
                    ]
                },
                "status": "unknown",
                "code": {
                    "coding": [
                        {
                            "system": "http://read.info/readv2",
                            "code": "429.."
                        }
                    ]
                },
                "subject": {
                    "reference": "urn:uuid:a79801bb-ff81-439c-a1ef-378020285533"
                },
                "performer": [
                    {
                        "reference": "urn:uuid:ce0d393a-3ad5-448a-b14c-03a184e2114d"
                    },
                    {
                        "reference": "urn:uuid:df11f04e-ae1b-4235-a431-67be1b0ea9f2"
                    }
                ],
                "valueQuantity": {
                    "value": 34.1,
                    "unit": "g/dl"
                },
                "specimen": {
                    "reference": "urn:uuid:179e7135-2873-4f5e-a7c9-a831bc4a7a54"
                },
                "referenceRange": [
                    {
                        "low": {
                            "value": 31.6,
                            "unit": "g/dl"
                        },
                        "high": {
                            "value": 34.9,
                            "unit": "g/dl"
                        }
                    }
                ],
                "related": [
                    {
                        "target": {
                            "reference": "urn:uuid:c8126ec6-1f44-4b47-95be-e2a890adf037"
                        }
                    }
                ]
            }
        },
        {
            "fullUrl": "urn:uuid:9da1114c-ef54-4502-99e0-7ee03f20f4f6",
            "resource": {
                "resourceType": "Observation",
                "id": "9da1114c-ef54-4502-99e0-7ee03f20f4f6",
                "meta": {
                    "profile": [
                        "https://fhir.hl7.org.uk/STU3/StructureDefinition/CareConnect-Observation-1"
                    ]
                },
                "status": "unknown",
                "code": {
                    "coding": [
                        {
                            "system": "http://read.info/readv2",
                            "code": "42J.."
                        }
                    ]
                },
                "subject": {
                    "reference": "urn:uuid:a79801bb-ff81-439c-a1ef-378020285533"
                },
                "performer": [
                    {
                        "reference": "urn:uuid:ce0d393a-3ad5-448a-b14c-03a184e2114d"
                    },
                    {
                        "reference": "urn:uuid:df11f04e-ae1b-4235-a431-67be1b0ea9f2"
                    }
                ],
                "valueQuantity": {
                    "value": 3.66,
                    "unit": "X 10-9/l"
                },
                "comment": "66.3%",
                "specimen": {
                    "reference": "urn:uuid:179e7135-2873-4f5e-a7c9-a831bc4a7a54"
                },
                "referenceRange": [
                    {
                        "low": {
                            "value": 1.7,
                            "unit": "X 10-9/l"
                        },
                        "high": {
                            "value": 7.5,
                            "unit": "X 10-9/l"
                        }
                    }
                ],
                "related": [
                    {
                        "target": {
                            "reference": "urn:uuid:c8126ec6-1f44-4b47-95be-e2a890adf037"
                        }
                    }
                ]
            }
        },
        {
            "fullUrl": "urn:uuid:0a66a38d-8635-4631-abfe-d42af55d7120",
            "resource": {
                "resourceType": "Observation",
                "id": "0a66a38d-8635-4631-abfe-d42af55d7120",
                "meta": {
                    "profile": [
                        "https://fhir.hl7.org.uk/STU3/StructureDefinition/CareConnect-Observation-1"
                    ]
                },
                "status": "unknown",
                "code": {
                    "coding": [
                        {
                            "system": "http://read.info/readv2",
                            "code": "42N.."
                        }
                    ]
                },
                "subject": {
                    "reference": "urn:uuid:a79801bb-ff81-439c-a1ef-378020285533"
                },
                "performer": [
                    {
                        "reference": "urn:uuid:ce0d393a-3ad5-448a-b14c-03a184e2114d"
                    },
                    {
                        "reference": "urn:uuid:df11f04e-ae1b-4235-a431-67be1b0ea9f2"
                    }
                ],
                "valueQuantity": {
                    "value": 0.25,
                    "unit": "X 10-9/l"
                },
                "comment": "4.5%",
                "specimen": {
                    "reference": "urn:uuid:179e7135-2873-4f5e-a7c9-a831bc4a7a54"
                },
                "referenceRange": [
                    {
                        "low": {
                            "value": 0.2,
                            "unit": "X 10-9/l"
                        },
                        "high": {
                            "value": 0.6,
                            "unit": "X 10-9/l"
                        }
                    }
                ],
                "related": [
                    {
                        "target": {
                            "reference": "urn:uuid:c8126ec6-1f44-4b47-95be-e2a890adf037"
                        }
                    }
                ]
            }
        },
        {
            "fullUrl": "urn:uuid:e1230084-3ec2-499f-8be3-c4bcb1a9cfe5",
            "resource": {
                "resourceType": "Observation",
                "id": "e1230084-3ec2-499f-8be3-c4bcb1a9cfe5",
                "meta": {
                    "profile": [
                        "https://fhir.hl7.org.uk/STU3/StructureDefinition/CareConnect-Observation-1"
                    ]
                },
                "status": "unknown",
                "code": {
                    "coding": [
                        {
                            "system": "http://read.info/readv2",
                            "code": "42K.."
                        }
                    ]
                },
                "subject": {
                    "reference": "urn:uuid:a79801bb-ff81-439c-a1ef-378020285533"
                },
                "performer": [
                    {
                        "reference": "urn:uuid:ce0d393a-3ad5-448a-b14c-03a184e2114d"
                    },
                    {
                        "reference": "urn:uuid:df11f04e-ae1b-4235-a431-67be1b0ea9f2"
                    }
                ],
                "valueQuantity": {
                    "value": 0.08,
                    "unit": "X 10-9/l"
                },
                "interpretation": {
                    "coding": [
                        {
                            "system": "http://hl7.org/fhir/v2/0078",
                            "code": "L",
                            "display": "Low"
                        }
                    ]
                },
                "comment": "1.5%",
                "specimen": {
                    "reference": "urn:uuid:179e7135-2873-4f5e-a7c9-a831bc4a7a54"
                },
                "referenceRange": [
                    {
                        "low": {
                            "value": 0.1,
                            "unit": "X 10-9/l"
                        },
                        "high": {
                            "value": 0.5,
                            "unit": "X 10-9/l"
                        }
                    }
                ],
                "related": [
                    {
                        "target": {
                            "reference": "urn:uuid:c8126ec6-1f44-4b47-95be-e2a890adf037"
                        }
                    }
                ]
            }
        },
        {
            "fullUrl": "urn:uuid:ad31665d-36d8-4e9d-9cb5-231d959d8385",
            "resource": {
                "resourceType": "Observation",
                "id": "ad31665d-36d8-4e9d-9cb5-231d959d8385",
                "meta": {
                    "profile": [
                        "https://fhir.hl7.org.uk/STU3/StructureDefinition/CareConnect-Observation-1"
                    ]
                },
                "status": "unknown",
                "code": {
                    "coding": [
                        {
                            "system": "http://read.info/readv2",
                            "code": "42L.."
                        }
                    ]
                },
                "subject": {
                    "reference": "urn:uuid:a79801bb-ff81-439c-a1ef-378020285533"
                },
                "performer": [
                    {
                        "reference": "urn:uuid:ce0d393a-3ad5-448a-b14c-03a184e2114d"
                    },
                    {
                        "reference": "urn:uuid:df11f04e-ae1b-4235-a431-67be1b0ea9f2"
                    }
                ],
                "valueQuantity": {
                    "value": 0.04,
                    "unit": "X 10-9/l"
                },
                "comment": "0.7%",
                "specimen": {
                    "reference": "urn:uuid:179e7135-2873-4f5e-a7c9-a831bc4a7a54"
                },
                "referenceRange": [
                    {
                        "low": {
                            "value": 0.02,
                            "unit": "X 10-9/l"
                        },
                        "high": {
                            "value": 0.1,
                            "unit": "X 10-9/l"
                        }
                    }
                ],
                "related": [
                    {
                        "target": {
                            "reference": "urn:uuid:c8126ec6-1f44-4b47-95be-e2a890adf037"
                        }
                    }
                ]
            }
        }
    ]
}