{
    "resourceType": "Bundle",
    "id": "6d5939f4-347f-465e-b71e-06bbb8b5131d",
    "meta": {
        "lastUpdated": "2021-06-08T10:51:53.284+01:00",
        "profile": [
            "https://fhir.nhs.uk/STU3/StructureDefinition/ITK-Message-Bundle-1"
        ]
    },
    "identifier": {
        "system": "https://tools.ietf.org/html/rfc4122",
        "value": "c68182b3-b23b-429a-9988-0c3480cee9d7"
    },
    "type": "message",
    "entry": [
        {
            "fullUrl": "urn:uuid:8159caa6-e779-4d55-95bf-befb71a05983",
            "resource": {
                "resourceType": "MessageHeader",
                "id": "8159caa6-e779-4d55-95bf-befb71a05983",
                "meta": {
                    "profile": [
                        "https://fhir.nhs.uk/STU3/StructureDefinition/ITK-MessageHeader-2"
                    ]
                },
                "extension": [
                    {
                        "url": "https://fhir.nhs.uk/STU3/StructureDefinition/Extension-ITK-MessageHandling-2",
                        "extension": [
                            {
                                "url": "BusAckRequested",
                                "valueBoolean": true
                            },
                            {
                                "url": "InfAckRequested",
                                "valueBoolean": true
                            },
                            {
                                "url": "RecipientType",
                                "valueCoding": {
                                    "system": "https://fhir.nhs.uk/STU3/CodeSystem/ITK-RecipientType-1",
                                    "code": "FA",
                                    "display": "For Action"
                                }
                            },
                            {
                                "url": "SenderReference",
                                "valueString": "None"
                            },
                            {
                                "url": "LocalExtension",
                                "valueString": "None"
                            }
                        ]
                    }
                ],
                "event": {
                    "system": "https://fhir.nhs.uk/STU3/CodeSystem/ITK-MessageEvent-2",
                    "code": "ITK012M",
                    "display": "ITK National Pathology"
                },
                "receiver": {
                    "reference": "urn:uuid:bf5c29a0-762d-4ca7-8b36-8d1b94399c29"
                },
                "sender": {
                    "reference": "urn:uuid:2e50b9b4-e5f6-4af0-b050-ef11e022797f"
                },
                "timestamp": "2007-03-27T16:11:00.000+01:00",
                "source": {
                    "endpoint": "lab_results_mailbox"
                },
                "responsible": {
                    "reference": "urn:uuid:2e50b9b4-e5f6-4af0-b050-ef11e022797f"
                },
                "focus": [
                    {
                        "reference": "urn:uuid:4bfda5b7-3004-4f7c-9fbe-b15644200e75"
                    }
                ]
            }
        },
        {
            "fullUrl": "urn:uuid:8d6e875a-eaf3-47a8-bd60-39bddac4afb3",
            "resource": {
                "resourceType": "Patient",
                "id": "8d6e875a-eaf3-47a8-bd60-39bddac4afb3",
                "meta": {
                    "profile": [
                        "https://fhir.hl7.org.uk/STU3/StructureDefinition/CareConnect-Patient-1"
                    ]
                },
                "identifier": [
                    {
                        "id": "C905711"
                    }
                ],
                "name": [
                    {
                        "use": "official",
                        "family": "PITSTOP",
                        "given": [
                            "PENELOPE",
                            "JANE"
                        ]
                    }
                ],
                "gender": "female",
                "birthDate": "1950-02-15",
                "address": [
                    {
                        "line": [
                            "HILLTOP FARM",
                            "TRUMPTON"
                        ]
                    }
                ]
            }
        },
        {
            "fullUrl": "urn:uuid:77b3932d-f9d1-401b-9bb9-6aaf8aaf54a3",
            "resource": {
                "resourceType": "Practitioner",
                "id": "77b3932d-f9d1-401b-9bb9-6aaf8aaf54a3",
                "meta": {
                    "profile": [
                        "https://fhir.hl7.org.uk/STU3/StructureDefinition/CareConnect-Practitioner-1"
                    ]
                },
                "identifier": [
                    {
                        "value": "G9304284"
                    }
                ],
                "name": [
                    {
                        "text": "DR A DOCTOR"
                    }
                ]
            }
        },
        {
            "fullUrl": "urn:uuid:bf5c29a0-762d-4ca7-8b36-8d1b94399c29",
            "resource": {
                "resourceType": "Organization",
                "id": "bf5c29a0-762d-4ca7-8b36-8d1b94399c29",
                "meta": {
                    "profile": [
                        "https://fhir.hl7.org.uk/STU3/StructureDefinition/CareConnect-Organization-1"
                    ]
                },
                "identifier": [
                    {
                        "system": "https://fhir.nhs.uk/Id/ods-organization-code",
                        "value": "L99999"
                    }
                ]
            }
        },
        {
            "fullUrl": "urn:uuid:6b1d7fcc-04b1-4876-bb9c-dd2f512d97da",
            "resource": {
                "resourceType": "Practitioner",
                "id": "6b1d7fcc-04b1-4876-bb9c-dd2f512d97da",
                "meta": {
                    "profile": [
                        "https://fhir.hl7.org.uk/STU3/StructureDefinition/CareConnect-Practitioner-1"
                    ]
                }
            }
        },
        {
            "fullUrl": "urn:uuid:2e50b9b4-e5f6-4af0-b050-ef11e022797f",
            "resource": {
                "resourceType": "Organization",
                "id": "2e50b9b4-e5f6-4af0-b050-ef11e022797f",
                "meta": {
                    "profile": [
                        "https://fhir.hl7.org.uk/STU3/StructureDefinition/CareConnect-Organization-1"
                    ]
                },
                "identifier": [
                    {
                        "system": "https://fhir.nhs.uk/Id/ods-organization-code",
                        "value": "REF00"
                    }
                ],
                "type": [
                    {
                        "coding": [
                            {
                                "code": "dept",
                                "display": "RCHT CLIN IMG"
                            }
                        ]
                    }
                ]
            }
        },
        {
            "fullUrl": "urn:uuid:144f2311-af71-4c1c-b929-cd8de5d1ee5c",
            "resource": {
                "resourceType": "ProcedureRequest",
                "id": "144f2311-af71-4c1c-b929-cd8de5d1ee5c",
                "meta": {
                    "profile": [
                        "https://fhir.hl7.org.uk/STU3/StructureDefinition/CareConnect-ProcedureRequest-1"
                    ]
                },
                "status": "active",
                "intent": "order",
                "code": {
                    "coding": [
                        {
                            "system": "http://snomed.info/sct",
                            "code": "15220000",
                            "display": "Laboratory test (procedure)"
                        }
                    ]
                },
                "subject": {
                    "reference": "urn:uuid:8d6e875a-eaf3-47a8-bd60-39bddac4afb3"
                },
                "requester": {
                    "agent": {
                        "reference": "urn:uuid:77b3932d-f9d1-401b-9bb9-6aaf8aaf54a3"
                    },
                    "onBehalfOf": {
                        "reference": "urn:uuid:bf5c29a0-762d-4ca7-8b36-8d1b94399c29"
                    }
                },
                "performer": {
                    "reference": "urn:uuid:6b1d7fcc-04b1-4876-bb9c-dd2f512d97da"
                }
            }
        },
        {
            "fullUrl": "urn:uuid:4bfda5b7-3004-4f7c-9fbe-b15644200e75",
            "resource": {
                "resourceType": "DiagnosticReport",
                "id": "4bfda5b7-3004-4f7c-9fbe-b15644200e75",
                "meta": {
                    "profile": [
                        "https://fhir.hl7.org.uk/STU3/StructureDefinition/CareConnect-DiagnosticReport-1"
                    ]
                },
                "identifier": [
                    {
                        "system": "https://tools.ietf.org/html/rfc4122",
                        "value": "468158/3"
                    }
                ],
                "basedOn": [
                    {
                        "reference": "urn:uuid:144f2311-af71-4c1c-b929-cd8de5d1ee5c"
                    }
                ],
                "status": "unknown",
                "code": {
                    "coding": [
                        {
                            "system": "http://snomed.info/sct",
                            "code": "721981007",
                            "display": "Diagnostic studies report"
                        }
                    ]
                },
                "subject": {
                    "reference": "urn:uuid:8d6e875a-eaf3-47a8-bd60-39bddac4afb3"
                },
                "issued": "2007-03-27T13:13:00.000+01:00",
                "performer": [
                    {
                        "actor": {
                            "reference": "urn:uuid:2e50b9b4-e5f6-4af0-b050-ef11e022797f"
                        }
                    },
                    {
                        "actor": {
                            "reference": "urn:uuid:6b1d7fcc-04b1-4876-bb9c-dd2f512d97da"
                        }
                    }
                ],
                "specimen": [
                    {
                        "reference": "urn:uuid:7f32d6bc-4fc4-4f9c-85d7-49452a63197e"
                    }
                ],
                "result": [
                    {
                        "reference": "urn:uuid:e752f766-b7ba-4e54-a6da-1a2148c9ce54"
                    }
                ]
            }
        },
        {
            "fullUrl": "urn:uuid:7f32d6bc-4fc4-4f9c-85d7-49452a63197e",
            "resource": {
                "resourceType": "Specimen",
                "id": "7f32d6bc-4fc4-4f9c-85d7-49452a63197e",
                "meta": {
                    "profile": [
                        "https://fhir.hl7.org.uk/STU3/StructureDefinition/CareConnect-Specimen-1"
                    ]
                },
                "accessionIdentifier": {
                    "value": "07052525/XR Chest"
                },
                "type": {
                    "coding": [
                        {
                            "code": "T016"
                        }
                    ]
                },
                "subject": {
                    "reference": "urn:uuid:8d6e875a-eaf3-47a8-bd60-39bddac4afb3"
                },
                "receivedTime": "2007-03-26T12:37:00+01:00",
                "collection": {
                    "collectedDateTime": "2007-03-26T12:37:00+01:00"
                }
            }
        },
        {
            "fullUrl": "urn:uuid:e752f766-b7ba-4e54-a6da-1a2148c9ce54",
            "resource": {
                "resourceType": "Observation",
                "id": "e752f766-b7ba-4e54-a6da-1a2148c9ce54",
                "meta": {
                    "profile": [
                        "https://fhir.hl7.org.uk/STU3/StructureDefinition/CareConnect-Observation-1"
                    ]
                },
                "status": "unknown",
                "code": {
                    "coding": [
                        {
                            "display": "IMAGING XR Chest"
                        }
                    ]
                },
                "subject": {
                    "reference": "urn:uuid:8d6e875a-eaf3-47a8-bd60-39bddac4afb3"
                },
                "performer": [
                    {
                        "reference": "urn:uuid:2e50b9b4-e5f6-4af0-b050-ef11e022797f"
                    },
                    {
                        "reference": "urn:uuid:6b1d7fcc-04b1-4876-bb9c-dd2f512d97da"
                    }
                ],
                "comment": "No lung or mediastinal lesion is seen.\nReporter: Dr E E SMITH",
                "specimen": {
                    "reference": "urn:uuid:7f32d6bc-4fc4-4f9c-85d7-49452a63197e"
                }
            }
        }
    ]
}