{
  "resourceType": "Bundle",
  "id": "cb0cc95f-79c2-468c-acda-463cb6b5467a",
  "meta": {
    "lastUpdated": "2021-03-19T14:43:17.005+00:00",
    "profile": [
      "https://fhir.nhs.uk/STU3/StructureDefinition/ITK-Message-Bundle-1"
    ]
  },
  "identifier": {
    "system": "https://tools.ietf.org/html/rfc4122",
    "value": "26ed0510-a157-41b3-b5c7-71088575fb86"
  },
  "type": "message",
  "entry": [
    {
      "fullUrl": "urn:uuid:7fb30e10-1bab-461f-b47f-069d0de102a0",
      "resource": {
        "resourceType": "Patient",
        "id": "7fb30e10-1bab-461f-b47f-069d0de102a0",
        "identifier": [
          {
            "system": "https://fhir.nhs.uk/Id/nhs-number",
            "value": "7000000007"
          }
        ],
        "name": [
          {
            "family": "MILLER",
            "given": [
              "WINDY",
              "BRIAN"
            ],
            "prefix": [
              "MR"
            ]
          }
        ],
        "gender": "male",
        "birthDate": "1946-09-18",
        "address": [
          {
            "line": [
              "THE WINDMILL",
              "WINDMILL HILL"
            ],
            "postalCode": "PL1 1AA"
          }
        ]
      }
    },
    {
      "fullUrl": "urn:uuid:753d62da-69dc-47a4-8a5a-38e670e45275",
      "resource": {
        "resourceType": "Organization",
        "id": "753d62da-69dc-47a4-8a5a-38e670e45275",
        "type": [
          {
            "coding": [
              {
                "code": "dept",
                "display": "TRELISKE HAE/CH"
              }
            ]
          }
        ]
      }
    },
    {
      "fullUrl": "urn:uuid:d9bd7654-78bf-44b3-b5a4-f16022545caa",
      "resource": {
        "resourceType": "ProcedureRequest",
        "id": "d9bd7654-78bf-44b3-b5a4-f16022545caa",
        "status": "unknown",
        "intent": "order",
        "code": {
          "text": "unknown"
        },
        "subject": {
          "reference": "urn:uuid:7fb30e10-1bab-461f-b47f-069d0de102a0"
        },
        "performer": {
          "reference": "urn:uuid:753d62da-69dc-47a4-8a5a-38e670e45275"
        },
        "note": [
          {
            "text": "MICROANEURYSM R EYE"
          }
        ]
      }
    },
    {
      "fullUrl": "urn:uuid:fa51f32f-eab9-45f5-99f1-a60805152916",
      "resource": {
        "resourceType": "DiagnosticReport",
        "id": "fa51f32f-eab9-45f5-99f1-a60805152916",
        "identifier": [
          {
            "value": "428090/1"
          }
        ],
        "basedOn": [
          {
            "reference": "urn:uuid:d9bd7654-78bf-44b3-b5a4-f16022545caa"
          }
        ],
        "status": "unknown",
        "code": {
          "coding": [
            {
              "system": "http://snomed.info/sct",
              "code": "721981007",
              "display": "Diagnostic studies report"
            }
          ]
        },
        "subject": {
          "reference": "urn:uuid:7fb30e10-1bab-461f-b47f-069d0de102a0"
        },
        "issued": "2003-03-04T17:14:00.000+00:00",
        "performer": [
          {
            "actor": {
              "reference": "urn:uuid:753d62da-69dc-47a4-8a5a-38e670e45275"
            }
          }
        ]
      }
    }
  ]
}