{
    "resourceType": "Bundle",
    "id": "7857c768-c79f-45c2-af96-f7480be063d1",
    "meta": {
        "lastUpdated": "2021-04-27T13:31:10.775+01:00",
        "profile": [
            "https://fhir.nhs.uk/STU3/StructureDefinition/ITK-Message-Bundle-1"
        ]
    },
    "identifier": {
        "system": "https://tools.ietf.org/html/rfc4122",
        "value": "9ca1bd5b-0519-41b9-ba3b-79d45f280b17"
    },
    "type": "message",
    "entry": [
        {
            "fullUrl": "urn:uuid:60986e58-e490-4261-9d5b-acd12abbf3fb",
            "resource": {
                "resourceType": "MessageHeader",
                "id": "60986e58-e490-4261-9d5b-acd12abbf3fb",
                "meta": {
                    "profile": [
                        "https://fhir.nhs.uk/STU3/StructureDefinition/ITK-MessageHeader-2"
                    ]
                },
                "extension": [
                    {
                        "url": "https://fhir.nhs.uk/STU3/StructureDefinition/Extension-ITK-MessageHandling-2",
                        "extension": [
                            {
                                "url": "BusAckRequested",
                                "valueBoolean": true
                            },
                            {
                                "url": "InfAckRequested",
                                "valueBoolean": true
                            },
                            {
                                "url": "RecipientType",
                                "valueCoding": {
                                    "system": "https://fhir.nhs.uk/STU3/CodeSystem/ITK-RecipientType-1",
                                    "code": "FA",
                                    "display": "For Action"
                                }
                            },
                            {
                                "url": "SenderReference",
                                "valueString": "None"
                            },
                            {
                                "url": "LocalExtension",
                                "valueString": "None"
                            }
                        ]
                    }
                ],
                "event": {
                    "system": "https://fhir.nhs.uk/STU3/CodeSystem/ITK-MessageEvent-2",
                    "code": "ITK012M",
                    "display": "ITK National Pathology"
                },
                "receiver": {
                    "reference": "urn:uuid:ba0448fe-40a1-4617-953d-68ea852caa9b"
                },
                "sender": {
                    "reference": "urn:uuid:65c75b98-cd2d-4eee-a7c9-ac16ec965070"
                },
                "timestamp": "2007-03-27T16:11:00.000+01:00",
                "source": {
                    "endpoint": "lab_results_mailbox"
                },
                "responsible": {
                    "reference": "urn:uuid:65c75b98-cd2d-4eee-a7c9-ac16ec965070"
                },
                "focus": [
                    {
                        "reference": "urn:uuid:bfaa040d-cf75-499c-9fef-3b3ff2ff4ec0"
                    }
                ]
            }
        },
        {
            "fullUrl": "urn:uuid:cf9585b8-4bb8-41e0-bdb8-c51eb2a359af",
            "resource": {
                "resourceType": "Patient",
                "id": "cf9585b8-4bb8-41e0-bdb8-c51eb2a359af",
                "meta": {
                    "profile": [
                        "https://fhir.hl7.org.uk/STU3/StructureDefinition/CareConnect-Patient-1"
                    ]
                },
                "identifier": [
                    {
                        "id": "C905711"
                    }
                ],
                "name": [
                    {
                        "use": "official",
                        "family": "PITSTOP",
                        "given": [
                            "PENELOPE",
                            "JANE"
                        ]
                    }
                ],
                "gender": "female",
                "birthDate": "1950-02-15",
                "address": [
                    {
                        "line": [
                            "HILLTOP FARM",
                            "TRUMPTON"
                        ]
                    }
                ]
            }
        },
        {
            "fullUrl": "urn:uuid:b821c6e1-2308-4dab-8453-580905f9af3a",
            "resource": {
                "resourceType": "Practitioner",
                "id": "b821c6e1-2308-4dab-8453-580905f9af3a",
                "meta": {
                    "profile": [
                        "https://fhir.hl7.org.uk/STU3/StructureDefinition/CareConnect-Practitioner-1"
                    ]
                },
                "identifier": [
                    {
                        "system": "https://fhir.nhs.uk/Id/sds-user-id",
                        "value": "G9304284"
                    }
                ],
                "name": [
                    {
                        "text": "DR A DOCTOR"
                    }
                ]
            }
        },
        {
            "fullUrl": "urn:uuid:ba0448fe-40a1-4617-953d-68ea852caa9b",
            "resource": {
                "resourceType": "Organization",
                "id": "ba0448fe-40a1-4617-953d-68ea852caa9b",
                "meta": {
                    "profile": [
                        "https://fhir.hl7.org.uk/STU3/StructureDefinition/CareConnect-Organization-1"
                    ]
                },
                "identifier": [
                    {
                        "system": "https://fhir.nhs.uk/Id/ods-organization-code",
                        "value": "L99999"
                    }
                ]
            }
        },
        {
            "fullUrl": "urn:uuid:f8eddc89-aef5-4d9b-92b0-90b3e40a96d6",
            "resource": {
                "resourceType": "Practitioner",
                "id": "f8eddc89-aef5-4d9b-92b0-90b3e40a96d6",
                "meta": {
                    "profile": [
                        "https://fhir.hl7.org.uk/STU3/StructureDefinition/CareConnect-Practitioner-1"
                    ]
                }
            }
        },
        {
            "fullUrl": "urn:uuid:65c75b98-cd2d-4eee-a7c9-ac16ec965070",
            "resource": {
                "resourceType": "Organization",
                "id": "65c75b98-cd2d-4eee-a7c9-ac16ec965070",
                "meta": {
                    "profile": [
                        "https://fhir.hl7.org.uk/STU3/StructureDefinition/CareConnect-Organization-1"
                    ]
                },
                "identifier": [
                    {
                        "system": "https://fhir.nhs.uk/Id/ods-organization-code",
                        "value": "REF00"
                    }
                ],
                "type": [
                    {
                        "coding": [
                            {
                                "code": "dept",
                                "display": "RCHT CLIN IMG"
                            }
                        ]
                    }
                ]
            }
        },
        {
            "fullUrl": "urn:uuid:c77da0bf-434e-411e-8eb2-63909c11370b",
            "resource": {
                "resourceType": "ProcedureRequest",
                "id": "c77da0bf-434e-411e-8eb2-63909c11370b",
                "meta": {
                    "profile": [
                        "https://fhir.hl7.org.uk/STU3/StructureDefinition/CareConnect-ProcedureRequest-1"
                    ]
                },
                "status": "active",
                "intent": "order",
                "code": {
                    "text": "unknown"
                },
                "subject": {
                    "reference": "urn:uuid:cf9585b8-4bb8-41e0-bdb8-c51eb2a359af"
                },
                "requester": {
                    "agent": {
                        "reference": "urn:uuid:b821c6e1-2308-4dab-8453-580905f9af3a"
                    },
                    "onBehalfOf": {
                        "reference": "urn:uuid:ba0448fe-40a1-4617-953d-68ea852caa9b"
                    }
                },
                "performer": {
                    "reference": "urn:uuid:f8eddc89-aef5-4d9b-92b0-90b3e40a96d6"
                }
            }
        },
        {
            "fullUrl": "urn:uuid:bfaa040d-cf75-499c-9fef-3b3ff2ff4ec0",
            "resource": {
                "resourceType": "DiagnosticReport",
                "id": "bfaa040d-cf75-499c-9fef-3b3ff2ff4ec0",
                "meta": {
                    "profile": [
                        "https://fhir.hl7.org.uk/STU3/StructureDefinition/CareConnect-DiagnosticReport-1"
                    ]
                },
                "identifier": [
                    {
                        "system": "https://tools.ietf.org/html/rfc4122",
                        "value": "468158/3"
                    }
                ],
                "basedOn": [
                    {
                        "reference": "urn:uuid:c77da0bf-434e-411e-8eb2-63909c11370b"
                    }
                ],
                "status": "unknown",
                "code": {
                    "coding": [
                        {
                            "system": "http://snomed.info/sct",
                            "code": "721981007",
                            "display": "Diagnostic studies report"
                        }
                    ]
                },
                "subject": {
                    "reference": "urn:uuid:cf9585b8-4bb8-41e0-bdb8-c51eb2a359af"
                },
                "issued": "2007-03-27T13:13:00.000+01:00",
                "performer": [
                    {
                        "actor": {
                            "reference": "urn:uuid:65c75b98-cd2d-4eee-a7c9-ac16ec965070"
                        }
                    },
                    {
                        "actor": {
                            "reference": "urn:uuid:f8eddc89-aef5-4d9b-92b0-90b3e40a96d6"
                        }
                    }
                ],
                "specimen": [
                    {
                        "reference": "urn:uuid:d425f4ea-dbb8-4ae0-a147-dbb58e91aa3a"
                    }
                ],
                "result": [
                    {
                        "reference": "urn:uuid:44bba456-12f8-4868-9c98-2060415b1834"
                    }
                ]
            }
        },
        {
            "fullUrl": "urn:uuid:d425f4ea-dbb8-4ae0-a147-dbb58e91aa3a",
            "resource": {
                "resourceType": "Specimen",
                "id": "d425f4ea-dbb8-4ae0-a147-dbb58e91aa3a",
                "meta": {
                    "profile": [
                        "https://fhir.hl7.org.uk/STU3/StructureDefinition/CareConnect-Specimen-1"
                    ]
                },
                "accessionIdentifier": {
                    "system": "http://lab.acme.org/specimens/2011",
                    "value": "07052525/XR Chest"
                },
                "type": {
                    "coding": [
                        {
                            "system": "http://snomed.info/sct",
                            "code": "T016"
                        }
                    ]
                },
                "subject": {
                    "reference": "urn:uuid:cf9585b8-4bb8-41e0-bdb8-c51eb2a359af"
                },
                "receivedTime": "2007-03-26T12:37:00+01:00",
                "collection": {
                    "collectedDateTime": "2007-03-26T12:37:00+01:00"
                }
            }
        },
        {
            "fullUrl": "urn:uuid:44bba456-12f8-4868-9c98-2060415b1834",
            "resource": {
                "resourceType": "Observation",
                "id": "44bba456-12f8-4868-9c98-2060415b1834",
                "meta": {
                    "profile": [
                        "https://fhir.hl7.org.uk/STU3/StructureDefinition/CareConnect-Observation-1"
                    ]
                },
                "status": "unknown",
                "code": {
                    "coding": [
                        {
                            "display": "IMAGING XR Chest"
                        }
                    ]
                },
                "subject": {
                    "reference": "urn:uuid:cf9585b8-4bb8-41e0-bdb8-c51eb2a359af"
                },
                "performer": [
                    {
                        "reference": "urn:uuid:65c75b98-cd2d-4eee-a7c9-ac16ec965070"
                    },
                    {
                        "reference": "urn:uuid:f8eddc89-aef5-4d9b-92b0-90b3e40a96d6"
                    }
                ],
                "comment": "No lung or mediastinal lesion is seen.\nReporter: Dr E E SMITH",
                "specimen": {
                    "reference": "urn:uuid:d425f4ea-dbb8-4ae0-a147-dbb58e91aa3a"
                }
            }
        }
    ]
}