{
    "resourceType": "Bundle",
    "id": "b81acc98-c87b-46fd-b3f4-461385ccdc3c",
    "meta": {
        "lastUpdated": "2021-04-22T13:14:26.811+02:00",
        "profile": [
            "https://fhir.nhs.uk/STU3/StructureDefinition/ITK-Message-Bundle-1"
        ]
    },
    "identifier": {
        "system": "https://tools.ietf.org/html/rfc4122",
        "value": "65fa5730-124c-4a26-8b74-579a91f584fe"
    },
    "type": "message",
    "entry": [
        {
            "fullUrl": "urn:uuid:10161be4-bad3-4085-8561-6189810ea574",
            "resource": {
                "resourceType": "MessageHeader",
                "id": "10161be4-bad3-4085-8561-6189810ea574",
                "meta": {
                    "profile": [
                        "https://fhir.nhs.uk/STU3/StructureDefinition/ITK-MessageHeader-2"
                    ]
                },
                "extension": [
                    {
                        "url": "https://fhir.nhs.uk/STU3/StructureDefinition/Extension-ITK-MessageHandling-2",
                        "extension": [
                            {
                                "url": "BusAckRequested",
                                "valueBoolean": true
                            },
                            {
                                "url": "InfAckRequested",
                                "valueBoolean": true
                            },
                            {
                                "url": "RecipientType",
                                "valueCoding": {
                                    "system": "https://fhir.nhs.uk/STU3/CodeSystem/ITK-RecipientType-1",
                                    "code": "FA",
                                    "display": "For Action"
                                }
                            },
                            {
                                "url": "SenderReference",
                                "valueString": "None"
                            },
                            {
                                "url": "LocalExtension",
                                "valueString": "None"
                            }
                        ]
                    }
                ],
                "event": {
                    "system": "https://fhir.nhs.uk/STU3/CodeSystem/ITK-MessageEvent-2",
                    "code": "ITK012M",
                    "display": "ITK National Pathology"
                },
                "receiver": {
                    "reference": "urn:uuid:0b899947-2f05-4a08-833d-abbee17e4760"
                },
                "sender": {
                    "reference": "urn:uuid:bc686770-5934-4da8-848c-3970a2eb4b9b"
                },
                "source": {
                    "endpoint": "lab_results_mailbox"
                },
                "responsible": {
                    "reference": "urn:uuid:bc686770-5934-4da8-848c-3970a2eb4b9b"
                },
                "focus": [
                    {
                        "reference": "urn:uuid:dca85864-aff1-4b8e-9b6c-694ae74e0000"
                    }
                ]
            }
        },
        {
            "fullUrl": "urn:uuid:c8b6a9b7-0116-431a-a984-df23451b09f2",
            "resource": {
                "resourceType": "Patient",
                "id": "c8b6a9b7-0116-431a-a984-df23451b09f2",
                "meta": {
                    "profile": [
                        "https://fhir.hl7.org.uk/STU3/StructureDefinition/CareConnect-Patient-1"
                    ]
                },
                "identifier": [
                    {
                        "id": "C930718"
                    }
                ],
                "name": [
                    {
                        "family": "BLESSED",
                        "given": [
                            "BRIAN"
                        ]
                    }
                ],
                "gender": "male",
                "birthDate": "1949-06-09",
                "address": [
                    {
                        "line": [
                            "THE WHITE HOUSE",
                            "LONDON"
                        ]
                    }
                ]
            }
        },
        {
            "fullUrl": "urn:uuid:3e155d22-1837-4e11-8aac-5e33cf122354",
            "resource": {
                "resourceType": "Practitioner",
                "id": "3e155d22-1837-4e11-8aac-5e33cf122354",
                "meta": {
                    "profile": [
                        "https://fhir.hl7.org.uk/STU3/StructureDefinition/CareConnect-Practitioner-1"
                    ]
                },
                "identifier": [
                    {
                        "system": "https://fhir.nhs.uk/Id/sds-user-id",
                        "value": "G9999999"
                    }
                ],
                "name": [
                    {
                        "text": "DR A DOCTOR"
                    }
                ]
            }
        },
        {
            "fullUrl": "urn:uuid:0b899947-2f05-4a08-833d-abbee17e4760",
            "resource": {
                "resourceType": "Organization",
                "id": "0b899947-2f05-4a08-833d-abbee17e4760",
                "meta": {
                    "profile": [
                        "https://fhir.hl7.org.uk/STU3/StructureDefinition/CareConnect-Organization-1"
                    ]
                },
                "identifier": [
                    {
                        "system": "https://fhir.nhs.uk/Id/ods-organization-code",
                        "value": "L99999"
                    }
                ]
            }
        },
        {
            "fullUrl": "urn:uuid:62c9d407-f1ed-4447-8b7e-e5272e0c090c",
            "resource": {
                "resourceType": "Practitioner",
                "id": "62c9d407-f1ed-4447-8b7e-e5272e0c090c",
                "meta": {
                    "profile": [
                        "https://fhir.hl7.org.uk/STU3/StructureDefinition/CareConnect-Practitioner-1"
                    ]
                }
            }
        },
        {
            "fullUrl": "urn:uuid:bc686770-5934-4da8-848c-3970a2eb4b9b",
            "resource": {
                "resourceType": "Organization",
                "id": "bc686770-5934-4da8-848c-3970a2eb4b9b",
                "meta": {
                    "profile": [
                        "https://fhir.hl7.org.uk/STU3/StructureDefinition/CareConnect-Organization-1"
                    ]
                },
                "identifier": [
                    {
                        "system": "https://fhir.nhs.uk/Id/ods-organization-code",
                        "value": "REF00"
                    }
                ],
                "type": [
                    {
                        "coding": [
                            {
                                "code": "dept",
                                "display": "RCHT CLIN IMG"
                            }
                        ]
                    }
                ]
            }
        },
        {
            "fullUrl": "urn:uuid:1af949cd-b799-48d2-a114-7b2b73836cab",
            "resource": {
                "resourceType": "ProcedureRequest",
                "id": "1af949cd-b799-48d2-a114-7b2b73836cab",
                "meta": {
                    "profile": [
                        "https://fhir.hl7.org.uk/STU3/StructureDefinition/CareConnect-ProcedureRequest-1"
                    ]
                },
                "intent": "order",
                "code": {
                    "text": "unknown"
                },
                "subject": {
                    "reference": "urn:uuid:c8b6a9b7-0116-431a-a984-df23451b09f2"
                },
                "requester": {
                    "agent": {
                        "reference": "urn:uuid:3e155d22-1837-4e11-8aac-5e33cf122354"
                    },
                    "onBehalfOf": {
                        "reference": "urn:uuid:0b899947-2f05-4a08-833d-abbee17e4760"
                    }
                },
                "performer": {
                    "reference": "urn:uuid:62c9d407-f1ed-4447-8b7e-e5272e0c090c"
                }
            }
        },
        {
            "fullUrl": "urn:uuid:dca85864-aff1-4b8e-9b6c-694ae74e0000",
            "resource": {
                "resourceType": "DiagnosticReport",
                "id": "dca85864-aff1-4b8e-9b6c-694ae74e0000",
                "meta": {
                    "profile": [
                        "https://fhir.hl7.org.uk/STU3/StructureDefinition/CareConnect-DiagnosticReport-1"
                    ]
                },
                "identifier": [
                    {
                        "value": "468158/1"
                    }
                ],
                "basedOn": [
                    {
                        "reference": "urn:uuid:1af949cd-b799-48d2-a114-7b2b73836cab"
                    }
                ],
                "status": "unknown",
                "code": {
                    "coding": [
                        {
                            "system": "http://snomed.info/sct",
                            "code": "721981007",
                            "display": "Diagnostic studies report"
                        }
                    ]
                },
                "subject": {
                    "reference": "urn:uuid:c8b6a9b7-0116-431a-a984-df23451b09f2"
                },
                "issued": "2007-03-27T14:20:00.000+02:00",
                "performer": [
                    {
                        "actor": {
                            "reference": "urn:uuid:bc686770-5934-4da8-848c-3970a2eb4b9b"
                        }
                    },
                    {
                        "actor": {
                            "reference": "urn:uuid:62c9d407-f1ed-4447-8b7e-e5272e0c090c"
                        }
                    }
                ],
                "specimen": [
                    {
                        "reference": "urn:uuid:4844db75-8b1c-41d9-a0c9-1e7c8a6660bc"
                    }
                ],
                "result": [
                    {
                        "reference": "urn:uuid:97476cda-62e5-452f-add2-228d7e112756"
                    }
                ]
            }
        },
        {
            "fullUrl": "urn:uuid:4844db75-8b1c-41d9-a0c9-1e7c8a6660bc",
            "resource": {
                "resourceType": "Specimen",
                "id": "4844db75-8b1c-41d9-a0c9-1e7c8a6660bc",
                "meta": {
                    "profile": [
                        "https://fhir.hl7.org.uk/STU3/StructureDefinition/CareConnect-Specimen-1"
                    ]
                },
                "accessionIdentifier": {
                    "system": "http://lab.acme.org/specimens/2011",
                    "value": "07053229/XR Chest"
                },
                "type": {
                    "coding": [
                        {
                            "system": "http://snomed.info/sct",
                            "code": "T016"
                        }
                    ]
                },
                "subject": {
                    "reference": "urn:uuid:c8b6a9b7-0116-431a-a984-df23451b09f2"
                },
                "receivedTime": "2007-03-27T11:44:00+02:00",
                "collection": {
                    "collectedDateTime": "2007-03-27T11:44:00+02:00"
                }
            }
        },
        {
            "fullUrl": "urn:uuid:97476cda-62e5-452f-add2-228d7e112756",
            "resource": {
                "resourceType": "Observation",
                "id": "97476cda-62e5-452f-add2-228d7e112756",
                "meta": {
                    "profile": [
                        "https://fhir.hl7.org.uk/STU3/StructureDefinition/CareConnect-Observation-1"
                    ]
                },
                "status": "unknown",
                "code": {
                    "coding": [
                        {
                            "display": "IMAGING XR Chest"
                        }
                    ]
                },
                "subject": {
                    "reference": "urn:uuid:c8b6a9b7-0116-431a-a984-df23451b09f2"
                },
                "performer": [
                    {
                        "reference": "urn:uuid:bc686770-5934-4da8-848c-3970a2eb4b9b"
                    },
                    {
                        "reference": "urn:uuid:62c9d407-f1ed-4447-8b7e-e5272e0c090c"
                    }
                ],
                "comment": "No lung or mediastinal lesion is seen.\nReporter: Dr E E Scovell",
                "specimen": {
                    "reference": "urn:uuid:4844db75-8b1c-41d9-a0c9-1e7c8a6660bc"
                }
            }
        }
    ]
}