{
    "resourceType": "Bundle",
    "id": "c9c78486-a4b0-4270-bd32-69afad196730",
    "meta": {
        "lastUpdated": "2021-04-27T13:31:39.844+01:00",
        "profile": [
            "https://fhir.nhs.uk/STU3/StructureDefinition/ITK-Message-Bundle-1"
        ]
    },
    "identifier": {
        "system": "https://tools.ietf.org/html/rfc4122",
        "value": "20b95085-a4c6-4851-9015-3d8090738b4c"
    },
    "type": "message",
    "entry": [
        {
            "fullUrl": "urn:uuid:b259319d-0a2c-491d-a13b-c20c35efe059",
            "resource": {
                "resourceType": "MessageHeader",
                "id": "b259319d-0a2c-491d-a13b-c20c35efe059",
                "meta": {
                    "profile": [
                        "https://fhir.nhs.uk/STU3/StructureDefinition/ITK-MessageHeader-2"
                    ]
                },
                "extension": [
                    {
                        "url": "https://fhir.nhs.uk/STU3/StructureDefinition/Extension-ITK-MessageHandling-2",
                        "extension": [
                            {
                                "url": "BusAckRequested",
                                "valueBoolean": true
                            },
                            {
                                "url": "InfAckRequested",
                                "valueBoolean": true
                            },
                            {
                                "url": "RecipientType",
                                "valueCoding": {
                                    "system": "https://fhir.nhs.uk/STU3/CodeSystem/ITK-RecipientType-1",
                                    "code": "FA",
                                    "display": "For Action"
                                }
                            },
                            {
                                "url": "SenderReference",
                                "valueString": "None"
                            },
                            {
                                "url": "LocalExtension",
                                "valueString": "None"
                            }
                        ]
                    }
                ],
                "event": {
                    "system": "https://fhir.nhs.uk/STU3/CodeSystem/ITK-MessageEvent-2",
                    "code": "ITK012M",
                    "display": "ITK National Pathology"
                },
                "receiver": {
                    "reference": "urn:uuid:809efb97-866b-4078-a1b1-3198298c4ce4"
                },
                "sender": {
                    "reference": "urn:uuid:1269004e-4fd4-4697-9dc6-c4e02a0585ef"
                },
                "timestamp": "2003-03-04T23:47:00.000+00:00",
                "source": {
                    "endpoint": "lab_results_mailbox"
                },
                "responsible": {
                    "reference": "urn:uuid:1269004e-4fd4-4697-9dc6-c4e02a0585ef"
                },
                "focus": [
                    {
                        "reference": "urn:uuid:91deb9ee-2fde-4e79-a743-efb1e140ae4e"
                    }
                ]
            }
        },
        {
            "fullUrl": "urn:uuid:43f63ad7-863a-4558-b484-b0bb6cf3d4b3",
            "resource": {
                "resourceType": "Patient",
                "id": "43f63ad7-863a-4558-b484-b0bb6cf3d4b3",
                "meta": {
                    "profile": [
                        "https://fhir.hl7.org.uk/STU3/StructureDefinition/CareConnect-Patient-1"
                    ]
                },
                "identifier": [
                    {
                        "extension": [
                            {
                                "url": "https://fhir.hl7.org.uk/STU3/StructureDefinition/Extension-CareConnect-NHSNumberVerificationStatus-1",
                                "valueCodeableConcept": {
                                    "coding": [
                                        {
                                            "system": "https://fhir.hl7.org.uk/STU3/CodeSystem/CareConnect-NHSNumberVerificationStatus-1",
                                            "code": "01",
                                            "display": "Number present and verified"
                                        }
                                    ]
                                }
                            }
                        ],
                        "system": "https://fhir.nhs.uk/Id/nhs-number",
                        "value": "7000000007"
                    }
                ],
                "name": [
                    {
                        "use": "official",
                        "family": "MILLER",
                        "given": [
                            "WINDY",
                            "BRIAN"
                        ],
                        "prefix": [
                            "MR"
                        ]
                    }
                ],
                "gender": "male",
                "birthDate": "1946-09-18",
                "address": [
                    {
                        "line": [
                            "THE WINDMILL",
                            "WINDMILL HILL"
                        ],
                        "postalCode": "PL1 1AA"
                    }
                ]
            }
        },
        {
            "fullUrl": "urn:uuid:d52acf51-4b74-4405-b99d-80e042bb369a",
            "resource": {
                "resourceType": "Practitioner",
                "id": "d52acf51-4b74-4405-b99d-80e042bb369a",
                "meta": {
                    "profile": [
                        "https://fhir.hl7.org.uk/STU3/StructureDefinition/CareConnect-Practitioner-1"
                    ]
                },
                "identifier": [
                    {
                        "system": "https://fhir.nhs.uk/Id/sds-user-id",
                        "value": "G9304284"
                    }
                ],
                "name": [
                    {
                        "text": "DR A DOCTOR"
                    }
                ]
            }
        },
        {
            "fullUrl": "urn:uuid:809efb97-866b-4078-a1b1-3198298c4ce4",
            "resource": {
                "resourceType": "Organization",
                "id": "809efb97-866b-4078-a1b1-3198298c4ce4",
                "meta": {
                    "profile": [
                        "https://fhir.hl7.org.uk/STU3/StructureDefinition/CareConnect-Organization-1"
                    ]
                },
                "identifier": [
                    {
                        "system": "https://fhir.nhs.uk/Id/ods-organization-code",
                        "value": "L99999"
                    }
                ]
            }
        },
        {
            "fullUrl": "urn:uuid:40197d6c-60d7-4bf8-8ea7-5616deeee24f",
            "resource": {
                "resourceType": "Practitioner",
                "id": "40197d6c-60d7-4bf8-8ea7-5616deeee24f",
                "meta": {
                    "profile": [
                        "https://fhir.hl7.org.uk/STU3/StructureDefinition/CareConnect-Practitioner-1"
                    ]
                }
            }
        },
        {
            "fullUrl": "urn:uuid:1269004e-4fd4-4697-9dc6-c4e02a0585ef",
            "resource": {
                "resourceType": "Organization",
                "id": "1269004e-4fd4-4697-9dc6-c4e02a0585ef",
                "meta": {
                    "profile": [
                        "https://fhir.hl7.org.uk/STU3/StructureDefinition/CareConnect-Organization-1"
                    ]
                },
                "identifier": [
                    {
                        "system": "https://fhir.nhs.uk/Id/ods-organization-code",
                        "value": "REF00"
                    }
                ],
                "type": [
                    {
                        "coding": [
                            {
                                "code": "dept",
                                "display": "TRELISKE HAE/CH"
                            }
                        ]
                    }
                ]
            }
        },
        {
            "fullUrl": "urn:uuid:31168b48-27a8-4260-8147-0b6b25bc40bf",
            "resource": {
                "resourceType": "ProcedureRequest",
                "id": "31168b48-27a8-4260-8147-0b6b25bc40bf",
                "meta": {
                    "profile": [
                        "https://fhir.hl7.org.uk/STU3/StructureDefinition/CareConnect-ProcedureRequest-1"
                    ]
                },
                "status": "unknown",
                "intent": "order",
                "code": {
                    "text": "unknown"
                },
                "subject": {
                    "reference": "urn:uuid:43f63ad7-863a-4558-b484-b0bb6cf3d4b3"
                },
                "requester": {
                    "agent": {
                        "reference": "urn:uuid:d52acf51-4b74-4405-b99d-80e042bb369a"
                    },
                    "onBehalfOf": {
                        "reference": "urn:uuid:809efb97-866b-4078-a1b1-3198298c4ce4"
                    }
                },
                "performer": {
                    "reference": "urn:uuid:40197d6c-60d7-4bf8-8ea7-5616deeee24f"
                },
                "note": [
                    {
                        "text": "MICROANEURYSM R EYE"
                    }
                ]
            }
        },
        {
            "fullUrl": "urn:uuid:91deb9ee-2fde-4e79-a743-efb1e140ae4e",
            "resource": {
                "resourceType": "DiagnosticReport",
                "id": "91deb9ee-2fde-4e79-a743-efb1e140ae4e",
                "meta": {
                    "profile": [
                        "https://fhir.hl7.org.uk/STU3/StructureDefinition/CareConnect-DiagnosticReport-1"
                    ]
                },
                "identifier": [
                    {
                        "system": "https://tools.ietf.org/html/rfc4122",
                        "value": "428090/1"
                    }
                ],
                "basedOn": [
                    {
                        "reference": "urn:uuid:31168b48-27a8-4260-8147-0b6b25bc40bf"
                    }
                ],
                "status": "unknown",
                "code": {
                    "coding": [
                        {
                            "system": "http://snomed.info/sct",
                            "code": "721981007",
                            "display": "Diagnostic studies report"
                        }
                    ]
                },
                "subject": {
                    "reference": "urn:uuid:43f63ad7-863a-4558-b484-b0bb6cf3d4b3"
                },
                "issued": "2003-03-04T17:14:00.000+00:00",
                "performer": [
                    {
                        "actor": {
                            "reference": "urn:uuid:1269004e-4fd4-4697-9dc6-c4e02a0585ef"
                        }
                    },
                    {
                        "actor": {
                            "reference": "urn:uuid:40197d6c-60d7-4bf8-8ea7-5616deeee24f"
                        }
                    }
                ],
                "specimen": [
                    {
                        "reference": "urn:uuid:1e70b4a6-7465-44fb-8e6c-3857c5df2704"
                    }
                ],
                "result": [
                    {
                        "reference": "urn:uuid:b20851b5-abb6-47df-b57e-7e29d2a0e738"
                    }
                ]
            }
        },
        {
            "fullUrl": "urn:uuid:1e70b4a6-7465-44fb-8e6c-3857c5df2704",
            "resource": {
                "resourceType": "Specimen",
                "id": "1e70b4a6-7465-44fb-8e6c-3857c5df2704",
                "meta": {
                    "profile": [
                        "https://fhir.hl7.org.uk/STU3/StructureDefinition/CareConnect-Specimen-1"
                    ]
                },
                "accessionIdentifier": {
                    "system": "http://lab.acme.org/specimens/2011",
                    "value": "CH30304/6285Q"
                },
                "type": {
                    "coding": [
                        {
                            "system": "http://snomed.info/sct",
                            "code": "T026"
                        }
                    ]
                },
                "subject": {
                    "reference": "urn:uuid:43f63ad7-863a-4558-b484-b0bb6cf3d4b3"
                },
                "receivedTime": "2003-03-04T15:40:00+00:00",
                "collection": {
                    "collectedDateTime": "2003-03-04T10:30:00+00:00"
                }
            }
        },
        {
            "fullUrl": "urn:uuid:b20851b5-abb6-47df-b57e-7e29d2a0e738",
            "resource": {
                "resourceType": "Observation",
                "id": "b20851b5-abb6-47df-b57e-7e29d2a0e738",
                "meta": {
                    "profile": [
                        "https://fhir.hl7.org.uk/STU3/StructureDefinition/CareConnect-Observation-1"
                    ]
                },
                "status": "unknown",
                "code": {
                    "coding": [
                        {
                            "system": "http://read.info/readv2",
                            "code": "424.."
                        }
                    ]
                },
                "subject": {
                    "reference": "urn:uuid:43f63ad7-863a-4558-b484-b0bb6cf3d4b3"
                },
                "performer": [
                    {
                        "reference": "urn:uuid:1269004e-4fd4-4697-9dc6-c4e02a0585ef"
                    },
                    {
                        "reference": "urn:uuid:40197d6c-60d7-4bf8-8ea7-5616deeee24f"
                    }
                ],
                "specimen": {
                    "reference": "urn:uuid:1e70b4a6-7465-44fb-8e6c-3857c5df2704"
                },
                "related": [
                    {
                        "type": "has-member",
                        "target": {
                            "reference": "urn:uuid:545e69ac-f56d-4e6e-9c69-47daee83f59a"
                        }
                    },
                    {
                        "type": "has-member",
                        "target": {
                            "reference": "urn:uuid:35ac569e-5f57-443a-b345-c6c3478791a7"
                        }
                    },
                    {
                        "type": "has-member",
                        "target": {
                            "reference": "urn:uuid:d4435e8b-ff25-40e0-8dae-227b418999de"
                        }
                    },
                    {
                        "type": "has-member",
                        "target": {
                            "reference": "urn:uuid:893331a8-d6a8-4a0e-b2d9-2122a791b6ea"
                        }
                    },
                    {
                        "type": "has-member",
                        "target": {
                            "reference": "urn:uuid:99d0e4d9-be64-4548-b1fa-71e170979d13"
                        }
                    },
                    {
                        "type": "has-member",
                        "target": {
                            "reference": "urn:uuid:e0241048-db41-4be6-a5b1-ff7de87fbe3a"
                        }
                    },
                    {
                        "type": "has-member",
                        "target": {
                            "reference": "urn:uuid:9d67af2f-ca02-46e1-8572-15506784cb81"
                        }
                    },
                    {
                        "type": "has-member",
                        "target": {
                            "reference": "urn:uuid:a0aa00e4-96a5-4742-9c33-68993f249d35"
                        }
                    },
                    {
                        "type": "has-member",
                        "target": {
                            "reference": "urn:uuid:87e31594-6fa4-49d8-aba8-eff4492b9fff"
                        }
                    },
                    {
                        "type": "has-member",
                        "target": {
                            "reference": "urn:uuid:3bfe44d9-a6cb-4c9e-a840-66002a6a1ba0"
                        }
                    },
                    {
                        "type": "has-member",
                        "target": {
                            "reference": "urn:uuid:724dbbe2-ad43-477b-b4db-d02542ba8c32"
                        }
                    },
                    {
                        "type": "has-member",
                        "target": {
                            "reference": "urn:uuid:ea4e3472-37ad-4544-b9e6-b4bdb65d846a"
                        }
                    }
                ]
            }
        },
        {
            "fullUrl": "urn:uuid:545e69ac-f56d-4e6e-9c69-47daee83f59a",
            "resource": {
                "resourceType": "Observation",
                "id": "545e69ac-f56d-4e6e-9c69-47daee83f59a",
                "meta": {
                    "profile": [
                        "https://fhir.hl7.org.uk/STU3/StructureDefinition/CareConnect-Observation-1"
                    ]
                },
                "status": "unknown",
                "code": {
                    "coding": [
                        {
                            "system": "http://read.info/readv2",
                            "code": "423.."
                        }
                    ]
                },
                "subject": {
                    "reference": "urn:uuid:43f63ad7-863a-4558-b484-b0bb6cf3d4b3"
                },
                "performer": [
                    {
                        "reference": "urn:uuid:1269004e-4fd4-4697-9dc6-c4e02a0585ef"
                    },
                    {
                        "reference": "urn:uuid:40197d6c-60d7-4bf8-8ea7-5616deeee24f"
                    }
                ],
                "valueQuantity": {
                    "value": 16.7,
                    "unit": "g/dl"
                },
                "specimen": {
                    "reference": "urn:uuid:1e70b4a6-7465-44fb-8e6c-3857c5df2704"
                },
                "referenceRange": [
                    {
                        "low": {
                            "value": 13.3,
                            "unit": "g/dl"
                        },
                        "high": {
                            "value": 16.7,
                            "unit": "g/dl"
                        }
                    }
                ],
                "related": [
                    {
                        "target": {
                            "reference": "urn:uuid:b20851b5-abb6-47df-b57e-7e29d2a0e738"
                        }
                    }
                ]
            }
        },
        {
            "fullUrl": "urn:uuid:35ac569e-5f57-443a-b345-c6c3478791a7",
            "resource": {
                "resourceType": "Observation",
                "id": "35ac569e-5f57-443a-b345-c6c3478791a7",
                "meta": {
                    "profile": [
                        "https://fhir.hl7.org.uk/STU3/StructureDefinition/CareConnect-Observation-1"
                    ]
                },
                "status": "unknown",
                "code": {
                    "coding": [
                        {
                            "system": "http://read.info/readv2",
                            "code": "42H.."
                        }
                    ]
                },
                "subject": {
                    "reference": "urn:uuid:43f63ad7-863a-4558-b484-b0bb6cf3d4b3"
                },
                "performer": [
                    {
                        "reference": "urn:uuid:1269004e-4fd4-4697-9dc6-c4e02a0585ef"
                    },
                    {
                        "reference": "urn:uuid:40197d6c-60d7-4bf8-8ea7-5616deeee24f"
                    }
                ],
                "valueQuantity": {
                    "value": 5.5,
                    "unit": "X 10-9/l"
                },
                "specimen": {
                    "reference": "urn:uuid:1e70b4a6-7465-44fb-8e6c-3857c5df2704"
                },
                "referenceRange": [
                    {
                        "low": {
                            "value": 3.7,
                            "unit": "X 10-9/l"
                        },
                        "high": {
                            "value": 9.5,
                            "unit": "X 10-9/l"
                        }
                    }
                ],
                "related": [
                    {
                        "target": {
                            "reference": "urn:uuid:b20851b5-abb6-47df-b57e-7e29d2a0e738"
                        }
                    }
                ]
            }
        },
        {
            "fullUrl": "urn:uuid:d4435e8b-ff25-40e0-8dae-227b418999de",
            "resource": {
                "resourceType": "Observation",
                "id": "d4435e8b-ff25-40e0-8dae-227b418999de",
                "meta": {
                    "profile": [
                        "https://fhir.hl7.org.uk/STU3/StructureDefinition/CareConnect-Observation-1"
                    ]
                },
                "status": "unknown",
                "code": {
                    "coding": [
                        {
                            "system": "http://read.info/readv2",
                            "code": "42P.."
                        }
                    ]
                },
                "subject": {
                    "reference": "urn:uuid:43f63ad7-863a-4558-b484-b0bb6cf3d4b3"
                },
                "performer": [
                    {
                        "reference": "urn:uuid:1269004e-4fd4-4697-9dc6-c4e02a0585ef"
                    },
                    {
                        "reference": "urn:uuid:40197d6c-60d7-4bf8-8ea7-5616deeee24f"
                    }
                ],
                "valueQuantity": {
                    "value": 178,
                    "unit": "X 10-9/l"
                },
                "specimen": {
                    "reference": "urn:uuid:1e70b4a6-7465-44fb-8e6c-3857c5df2704"
                },
                "referenceRange": [
                    {
                        "low": {
                            "value": 150,
                            "unit": "X 10-9/l"
                        },
                        "high": {
                            "value": 400,
                            "unit": "X 10-9/l"
                        }
                    }
                ],
                "related": [
                    {
                        "target": {
                            "reference": "urn:uuid:b20851b5-abb6-47df-b57e-7e29d2a0e738"
                        }
                    }
                ]
            }
        },
        {
            "fullUrl": "urn:uuid:893331a8-d6a8-4a0e-b2d9-2122a791b6ea",
            "resource": {
                "resourceType": "Observation",
                "id": "893331a8-d6a8-4a0e-b2d9-2122a791b6ea",
                "meta": {
                    "profile": [
                        "https://fhir.hl7.org.uk/STU3/StructureDefinition/CareConnect-Observation-1"
                    ]
                },
                "status": "unknown",
                "code": {
                    "coding": [
                        {
                            "system": "http://read.info/readv2",
                            "code": "426.."
                        }
                    ]
                },
                "subject": {
                    "reference": "urn:uuid:43f63ad7-863a-4558-b484-b0bb6cf3d4b3"
                },
                "performer": [
                    {
                        "reference": "urn:uuid:1269004e-4fd4-4697-9dc6-c4e02a0585ef"
                    },
                    {
                        "reference": "urn:uuid:40197d6c-60d7-4bf8-8ea7-5616deeee24f"
                    }
                ],
                "valueQuantity": {
                    "value": 5.64,
                    "unit": "X 10-12/l"
                },
                "specimen": {
                    "reference": "urn:uuid:1e70b4a6-7465-44fb-8e6c-3857c5df2704"
                },
                "referenceRange": [
                    {
                        "low": {
                            "value": 4.3,
                            "unit": "X 10-12/l"
                        },
                        "high": {
                            "value": 5.7,
                            "unit": "X 10-12/l"
                        }
                    }
                ],
                "related": [
                    {
                        "target": {
                            "reference": "urn:uuid:b20851b5-abb6-47df-b57e-7e29d2a0e738"
                        }
                    }
                ]
            }
        },
        {
            "fullUrl": "urn:uuid:99d0e4d9-be64-4548-b1fa-71e170979d13",
            "resource": {
                "resourceType": "Observation",
                "id": "99d0e4d9-be64-4548-b1fa-71e170979d13",
                "meta": {
                    "profile": [
                        "https://fhir.hl7.org.uk/STU3/StructureDefinition/CareConnect-Observation-1"
                    ]
                },
                "status": "unknown",
                "code": {
                    "coding": [
                        {
                            "system": "http://read.info/readv2",
                            "code": "4258."
                        }
                    ]
                },
                "subject": {
                    "reference": "urn:uuid:43f63ad7-863a-4558-b484-b0bb6cf3d4b3"
                },
                "performer": [
                    {
                        "reference": "urn:uuid:1269004e-4fd4-4697-9dc6-c4e02a0585ef"
                    },
                    {
                        "reference": "urn:uuid:40197d6c-60d7-4bf8-8ea7-5616deeee24f"
                    }
                ],
                "valueQuantity": {
                    "value": 0.49,
                    "unit": "l/l"
                },
                "specimen": {
                    "reference": "urn:uuid:1e70b4a6-7465-44fb-8e6c-3857c5df2704"
                },
                "referenceRange": [
                    {
                        "low": {
                            "value": 0.39,
                            "unit": "l/l"
                        },
                        "high": {
                            "value": 0.50,
                            "unit": "l/l"
                        }
                    }
                ],
                "related": [
                    {
                        "target": {
                            "reference": "urn:uuid:b20851b5-abb6-47df-b57e-7e29d2a0e738"
                        }
                    }
                ]
            }
        },
        {
            "fullUrl": "urn:uuid:e0241048-db41-4be6-a5b1-ff7de87fbe3a",
            "resource": {
                "resourceType": "Observation",
                "id": "e0241048-db41-4be6-a5b1-ff7de87fbe3a",
                "meta": {
                    "profile": [
                        "https://fhir.hl7.org.uk/STU3/StructureDefinition/CareConnect-Observation-1"
                    ]
                },
                "status": "unknown",
                "code": {
                    "coding": [
                        {
                            "system": "http://read.info/readv2",
                            "code": "42A.."
                        }
                    ]
                },
                "subject": {
                    "reference": "urn:uuid:43f63ad7-863a-4558-b484-b0bb6cf3d4b3"
                },
                "performer": [
                    {
                        "reference": "urn:uuid:1269004e-4fd4-4697-9dc6-c4e02a0585ef"
                    },
                    {
                        "reference": "urn:uuid:40197d6c-60d7-4bf8-8ea7-5616deeee24f"
                    }
                ],
                "valueQuantity": {
                    "value": 86.8,
                    "unit": "f/l"
                },
                "specimen": {
                    "reference": "urn:uuid:1e70b4a6-7465-44fb-8e6c-3857c5df2704"
                },
                "referenceRange": [
                    {
                        "low": {
                            "value": 77,
                            "unit": "f/l"
                        },
                        "high": {
                            "value": 98,
                            "unit": "f/l"
                        }
                    }
                ],
                "related": [
                    {
                        "target": {
                            "reference": "urn:uuid:b20851b5-abb6-47df-b57e-7e29d2a0e738"
                        }
                    }
                ]
            }
        },
        {
            "fullUrl": "urn:uuid:9d67af2f-ca02-46e1-8572-15506784cb81",
            "resource": {
                "resourceType": "Observation",
                "id": "9d67af2f-ca02-46e1-8572-15506784cb81",
                "meta": {
                    "profile": [
                        "https://fhir.hl7.org.uk/STU3/StructureDefinition/CareConnect-Observation-1"
                    ]
                },
                "status": "unknown",
                "code": {
                    "coding": [
                        {
                            "system": "http://read.info/readv2",
                            "code": "428.."
                        }
                    ]
                },
                "subject": {
                    "reference": "urn:uuid:43f63ad7-863a-4558-b484-b0bb6cf3d4b3"
                },
                "performer": [
                    {
                        "reference": "urn:uuid:1269004e-4fd4-4697-9dc6-c4e02a0585ef"
                    },
                    {
                        "reference": "urn:uuid:40197d6c-60d7-4bf8-8ea7-5616deeee24f"
                    }
                ],
                "valueQuantity": {
                    "value": 29.6,
                    "unit": "pg"
                },
                "specimen": {
                    "reference": "urn:uuid:1e70b4a6-7465-44fb-8e6c-3857c5df2704"
                },
                "referenceRange": [
                    {
                        "low": {
                            "value": 27.3,
                            "unit": "pg"
                        },
                        "high": {
                            "value": 32.6,
                            "unit": "pg"
                        }
                    }
                ],
                "related": [
                    {
                        "target": {
                            "reference": "urn:uuid:b20851b5-abb6-47df-b57e-7e29d2a0e738"
                        }
                    }
                ]
            }
        },
        {
            "fullUrl": "urn:uuid:a0aa00e4-96a5-4742-9c33-68993f249d35",
            "resource": {
                "resourceType": "Observation",
                "id": "a0aa00e4-96a5-4742-9c33-68993f249d35",
                "meta": {
                    "profile": [
                        "https://fhir.hl7.org.uk/STU3/StructureDefinition/CareConnect-Observation-1"
                    ]
                },
                "status": "unknown",
                "code": {
                    "coding": [
                        {
                            "system": "http://read.info/readv2",
                            "code": "429.."
                        }
                    ]
                },
                "subject": {
                    "reference": "urn:uuid:43f63ad7-863a-4558-b484-b0bb6cf3d4b3"
                },
                "performer": [
                    {
                        "reference": "urn:uuid:1269004e-4fd4-4697-9dc6-c4e02a0585ef"
                    },
                    {
                        "reference": "urn:uuid:40197d6c-60d7-4bf8-8ea7-5616deeee24f"
                    }
                ],
                "valueQuantity": {
                    "value": 34.1,
                    "unit": "g/dl"
                },
                "specimen": {
                    "reference": "urn:uuid:1e70b4a6-7465-44fb-8e6c-3857c5df2704"
                },
                "referenceRange": [
                    {
                        "low": {
                            "value": 31.6,
                            "unit": "g/dl"
                        },
                        "high": {
                            "value": 34.9,
                            "unit": "g/dl"
                        }
                    }
                ],
                "related": [
                    {
                        "target": {
                            "reference": "urn:uuid:b20851b5-abb6-47df-b57e-7e29d2a0e738"
                        }
                    }
                ]
            }
        },
        {
            "fullUrl": "urn:uuid:87e31594-6fa4-49d8-aba8-eff4492b9fff",
            "resource": {
                "resourceType": "Observation",
                "id": "87e31594-6fa4-49d8-aba8-eff4492b9fff",
                "meta": {
                    "profile": [
                        "https://fhir.hl7.org.uk/STU3/StructureDefinition/CareConnect-Observation-1"
                    ]
                },
                "status": "unknown",
                "code": {
                    "coding": [
                        {
                            "system": "http://read.info/readv2",
                            "code": "42J.."
                        }
                    ]
                },
                "subject": {
                    "reference": "urn:uuid:43f63ad7-863a-4558-b484-b0bb6cf3d4b3"
                },
                "performer": [
                    {
                        "reference": "urn:uuid:1269004e-4fd4-4697-9dc6-c4e02a0585ef"
                    },
                    {
                        "reference": "urn:uuid:40197d6c-60d7-4bf8-8ea7-5616deeee24f"
                    }
                ],
                "valueQuantity": {
                    "value": 3.66,
                    "unit": "X 10-9/l"
                },
                "comment": "66.3%",
                "specimen": {
                    "reference": "urn:uuid:1e70b4a6-7465-44fb-8e6c-3857c5df2704"
                },
                "referenceRange": [
                    {
                        "low": {
                            "value": 1.7,
                            "unit": "X 10-9/l"
                        },
                        "high": {
                            "value": 7.5,
                            "unit": "X 10-9/l"
                        }
                    }
                ],
                "related": [
                    {
                        "target": {
                            "reference": "urn:uuid:b20851b5-abb6-47df-b57e-7e29d2a0e738"
                        }
                    }
                ]
            }
        },
        {
            "fullUrl": "urn:uuid:3bfe44d9-a6cb-4c9e-a840-66002a6a1ba0",
            "resource": {
                "resourceType": "Observation",
                "id": "3bfe44d9-a6cb-4c9e-a840-66002a6a1ba0",
                "meta": {
                    "profile": [
                        "https://fhir.hl7.org.uk/STU3/StructureDefinition/CareConnect-Observation-1"
                    ]
                },
                "status": "unknown",
                "code": {
                    "coding": [
                        {
                            "system": "http://read.info/readv2",
                            "code": "42N.."
                        }
                    ]
                },
                "subject": {
                    "reference": "urn:uuid:43f63ad7-863a-4558-b484-b0bb6cf3d4b3"
                },
                "performer": [
                    {
                        "reference": "urn:uuid:1269004e-4fd4-4697-9dc6-c4e02a0585ef"
                    },
                    {
                        "reference": "urn:uuid:40197d6c-60d7-4bf8-8ea7-5616deeee24f"
                    }
                ],
                "valueQuantity": {
                    "value": 0.25,
                    "unit": "X 10-9/l"
                },
                "comment": "4.5%",
                "specimen": {
                    "reference": "urn:uuid:1e70b4a6-7465-44fb-8e6c-3857c5df2704"
                },
                "referenceRange": [
                    {
                        "low": {
                            "value": 0.2,
                            "unit": "X 10-9/l"
                        },
                        "high": {
                            "value": 0.6,
                            "unit": "X 10-9/l"
                        }
                    }
                ],
                "related": [
                    {
                        "target": {
                            "reference": "urn:uuid:b20851b5-abb6-47df-b57e-7e29d2a0e738"
                        }
                    }
                ]
            }
        },
        {
            "fullUrl": "urn:uuid:724dbbe2-ad43-477b-b4db-d02542ba8c32",
            "resource": {
                "resourceType": "Observation",
                "id": "724dbbe2-ad43-477b-b4db-d02542ba8c32",
                "meta": {
                    "profile": [
                        "https://fhir.hl7.org.uk/STU3/StructureDefinition/CareConnect-Observation-1"
                    ]
                },
                "status": "unknown",
                "code": {
                    "coding": [
                        {
                            "system": "http://read.info/readv2",
                            "code": "42K.."
                        }
                    ]
                },
                "subject": {
                    "reference": "urn:uuid:43f63ad7-863a-4558-b484-b0bb6cf3d4b3"
                },
                "performer": [
                    {
                        "reference": "urn:uuid:1269004e-4fd4-4697-9dc6-c4e02a0585ef"
                    },
                    {
                        "reference": "urn:uuid:40197d6c-60d7-4bf8-8ea7-5616deeee24f"
                    }
                ],
                "valueQuantity": {
                    "value": 0.08,
                    "unit": "X 10-9/l"
                },
                "interpretation": {
                    "coding": [
                        {
                            "system": "http://hl7.org/fhir/v2/0078",
                            "code": "L",
                            "display": "Low"
                        }
                    ]
                },
                "comment": "1.5%",
                "specimen": {
                    "reference": "urn:uuid:1e70b4a6-7465-44fb-8e6c-3857c5df2704"
                },
                "referenceRange": [
                    {
                        "low": {
                            "value": 0.1,
                            "unit": "X 10-9/l"
                        },
                        "high": {
                            "value": 0.5,
                            "unit": "X 10-9/l"
                        }
                    }
                ],
                "related": [
                    {
                        "target": {
                            "reference": "urn:uuid:b20851b5-abb6-47df-b57e-7e29d2a0e738"
                        }
                    }
                ]
            }
        },
        {
            "fullUrl": "urn:uuid:ea4e3472-37ad-4544-b9e6-b4bdb65d846a",
            "resource": {
                "resourceType": "Observation",
                "id": "ea4e3472-37ad-4544-b9e6-b4bdb65d846a",
                "meta": {
                    "profile": [
                        "https://fhir.hl7.org.uk/STU3/StructureDefinition/CareConnect-Observation-1"
                    ]
                },
                "status": "unknown",
                "code": {
                    "coding": [
                        {
                            "system": "http://read.info/readv2",
                            "code": "42L.."
                        }
                    ]
                },
                "subject": {
                    "reference": "urn:uuid:43f63ad7-863a-4558-b484-b0bb6cf3d4b3"
                },
                "performer": [
                    {
                        "reference": "urn:uuid:1269004e-4fd4-4697-9dc6-c4e02a0585ef"
                    },
                    {
                        "reference": "urn:uuid:40197d6c-60d7-4bf8-8ea7-5616deeee24f"
                    }
                ],
                "valueQuantity": {
                    "value": 0.04,
                    "unit": "X 10-9/l"
                },
                "comment": "0.7%",
                "specimen": {
                    "reference": "urn:uuid:1e70b4a6-7465-44fb-8e6c-3857c5df2704"
                },
                "referenceRange": [
                    {
                        "low": {
                            "value": 0.02,
                            "unit": "X 10-9/l"
                        },
                        "high": {
                            "value": 0.1,
                            "unit": "X 10-9/l"
                        }
                    }
                ],
                "related": [
                    {
                        "target": {
                            "reference": "urn:uuid:b20851b5-abb6-47df-b57e-7e29d2a0e738"
                        }
                    }
                ]
            }
        }
    ]
}