{
    "resourceType": "Bundle",
    "id": "c730bb19-d444-4b58-a412-58ae694e8ba0",
    "meta": {
        "lastUpdated": "2021-05-31T12:30:01.847+01:00",
        "profile": [
            "https://fhir.nhs.uk/STU3/StructureDefinition/ITK-Message-Bundle-1"
        ]
    },
    "identifier": {
        "system": "https://tools.ietf.org/html/rfc4122",
        "value": "1724170e-617c-427b-9f5a-37038eacb476"
    },
    "type": "message",
    "entry": [
        {
            "fullUrl": "urn:uuid:57ff0317-d131-4880-bc7d-76fd1d4b7867",
            "resource": {
                "resourceType": "MessageHeader",
                "id": "57ff0317-d131-4880-bc7d-76fd1d4b7867",
                "meta": {
                    "profile": [
                        "https://fhir.nhs.uk/STU3/StructureDefinition/ITK-MessageHeader-2"
                    ]
                },
                "extension": [
                    {
                        "url": "https://fhir.nhs.uk/STU3/StructureDefinition/Extension-ITK-MessageHandling-2",
                        "extension": [
                            {
                                "url": "BusAckRequested",
                                "valueBoolean": true
                            },
                            {
                                "url": "InfAckRequested",
                                "valueBoolean": true
                            },
                            {
                                "url": "RecipientType",
                                "valueCoding": {
                                    "system": "https://fhir.nhs.uk/STU3/CodeSystem/ITK-RecipientType-1",
                                    "code": "FA",
                                    "display": "For Action"
                                }
                            },
                            {
                                "url": "SenderReference",
                                "valueString": "None"
                            },
                            {
                                "url": "LocalExtension",
                                "valueString": "None"
                            }
                        ]
                    }
                ],
                "event": {
                    "system": "https://fhir.nhs.uk/STU3/CodeSystem/ITK-MessageEvent-2",
                    "code": "ITK012M",
                    "display": "ITK National Pathology"
                },
                "receiver": {
                    "reference": "urn:uuid:23d6c60f-456c-46f3-b1d0-b6048de57be8"
                },
                "sender": {
                    "reference": "urn:uuid:82a8d737-3df9-4ee2-b7cb-4b2c0875a237"
                },
                "timestamp": "2007-03-27T16:11:00.000+01:00",
                "source": {
                    "endpoint": "lab_results_mailbox"
                },
                "responsible": {
                    "reference": "urn:uuid:82a8d737-3df9-4ee2-b7cb-4b2c0875a237"
                },
                "focus": [
                    {
                        "reference": "urn:uuid:bef1990f-4ae2-401c-b3c6-a898d1991440"
                    }
                ]
            }
        },
        {
            "fullUrl": "urn:uuid:1d4558d3-5e6d-4068-bb3e-add0667b272f",
            "resource": {
                "resourceType": "Patient",
                "id": "1d4558d3-5e6d-4068-bb3e-add0667b272f",
                "meta": {
                    "profile": [
                        "https://fhir.hl7.org.uk/STU3/StructureDefinition/CareConnect-Patient-1"
                    ]
                },
                "identifier": [
                    {
                        "id": "C930718"
                    }
                ],
                "name": [
                    {
                        "use": "official",
                        "family": "BLESSED",
                        "given": [
                            "BRIAN"
                        ]
                    }
                ],
                "gender": "male",
                "birthDate": "1949-06-09",
                "address": [
                    {
                        "line": [
                            "THE WHITE HOUSE",
                            "LONDON"
                        ]
                    }
                ]
            }
        },
        {
            "fullUrl": "urn:uuid:ae8e1503-ba4c-49d8-bd51-679b3391abb4",
            "resource": {
                "resourceType": "Practitioner",
                "id": "ae8e1503-ba4c-49d8-bd51-679b3391abb4",
                "meta": {
                    "profile": [
                        "https://fhir.hl7.org.uk/STU3/StructureDefinition/CareConnect-Practitioner-1"
                    ]
                },
                "identifier": [
                    {
                        "system": "https://fhir.nhs.uk/Id/sds-user-id",
                        "value": "G9999999"
                    }
                ],
                "name": [
                    {
                        "text": "DR A DOCTOR"
                    }
                ]
            }
        },
        {
            "fullUrl": "urn:uuid:23d6c60f-456c-46f3-b1d0-b6048de57be8",
            "resource": {
                "resourceType": "Organization",
                "id": "23d6c60f-456c-46f3-b1d0-b6048de57be8",
                "meta": {
                    "profile": [
                        "https://fhir.hl7.org.uk/STU3/StructureDefinition/CareConnect-Organization-1"
                    ]
                },
                "identifier": [
                    {
                        "system": "https://fhir.nhs.uk/Id/ods-organization-code",
                        "value": "L99999"
                    }
                ]
            }
        },
        {
            "fullUrl": "urn:uuid:8132a54b-7a43-48cd-91f9-d04e708c66f6",
            "resource": {
                "resourceType": "Practitioner",
                "id": "8132a54b-7a43-48cd-91f9-d04e708c66f6",
                "meta": {
                    "profile": [
                        "https://fhir.hl7.org.uk/STU3/StructureDefinition/CareConnect-Practitioner-1"
                    ]
                }
            }
        },
        {
            "fullUrl": "urn:uuid:82a8d737-3df9-4ee2-b7cb-4b2c0875a237",
            "resource": {
                "resourceType": "Organization",
                "id": "82a8d737-3df9-4ee2-b7cb-4b2c0875a237",
                "meta": {
                    "profile": [
                        "https://fhir.hl7.org.uk/STU3/StructureDefinition/CareConnect-Organization-1"
                    ]
                },
                "identifier": [
                    {
                        "system": "https://fhir.nhs.uk/Id/ods-organization-code",
                        "value": "REF00"
                    }
                ],
                "type": [
                    {
                        "coding": [
                            {
                                "code": "dept",
                                "display": "RCHT CLIN IMG"
                            }
                        ]
                    }
                ]
            }
        },
        {
            "fullUrl": "urn:uuid:ae5bd5fe-238a-4b6d-9274-780d5a1160ef",
            "resource": {
                "resourceType": "ProcedureRequest",
                "id": "ae5bd5fe-238a-4b6d-9274-780d5a1160ef",
                "meta": {
                    "profile": [
                        "https://fhir.hl7.org.uk/STU3/StructureDefinition/CareConnect-ProcedureRequest-1"
                    ]
                },
                "status": "active",
                "intent": "order",
                "code": {
                    "coding": [
                        {
                            "system": "http://snomed.info/sct",
                            "code": "15220000",
                            "display": "Laboratory test (procedure)"
                        }
                    ]
                },
                "subject": {
                    "reference": "urn:uuid:1d4558d3-5e6d-4068-bb3e-add0667b272f"
                },
                "requester": {
                    "agent": {
                        "reference": "urn:uuid:ae8e1503-ba4c-49d8-bd51-679b3391abb4"
                    },
                    "onBehalfOf": {
                        "reference": "urn:uuid:23d6c60f-456c-46f3-b1d0-b6048de57be8"
                    }
                },
                "performer": {
                    "reference": "urn:uuid:8132a54b-7a43-48cd-91f9-d04e708c66f6"
                }
            }
        },
        {
            "fullUrl": "urn:uuid:bef1990f-4ae2-401c-b3c6-a898d1991440",
            "resource": {
                "resourceType": "DiagnosticReport",
                "id": "bef1990f-4ae2-401c-b3c6-a898d1991440",
                "meta": {
                    "profile": [
                        "https://fhir.hl7.org.uk/STU3/StructureDefinition/CareConnect-DiagnosticReport-1"
                    ]
                },
                "identifier": [
                    {
                        "system": "https://tools.ietf.org/html/rfc4122",
                        "value": "468158/1"
                    }
                ],
                "basedOn": [
                    {
                        "reference": "urn:uuid:ae5bd5fe-238a-4b6d-9274-780d5a1160ef"
                    }
                ],
                "status": "unknown",
                "code": {
                    "coding": [
                        {
                            "system": "http://snomed.info/sct",
                            "code": "721981007",
                            "display": "Diagnostic studies report"
                        }
                    ]
                },
                "subject": {
                    "reference": "urn:uuid:1d4558d3-5e6d-4068-bb3e-add0667b272f"
                },
                "issued": "2007-03-27T13:20:00.000+01:00",
                "performer": [
                    {
                        "actor": {
                            "reference": "urn:uuid:82a8d737-3df9-4ee2-b7cb-4b2c0875a237"
                        }
                    },
                    {
                        "actor": {
                            "reference": "urn:uuid:8132a54b-7a43-48cd-91f9-d04e708c66f6"
                        }
                    }
                ],
                "specimen": [
                    {
                        "reference": "urn:uuid:fe5f0099-be56-41dd-a70e-88686c6f9797"
                    }
                ],
                "result": [
                    {
                        "reference": "urn:uuid:fbf0cf1b-0653-46f3-94e5-c0cec4e7cf0e"
                    }
                ]
            }
        },
        {
            "fullUrl": "urn:uuid:fe5f0099-be56-41dd-a70e-88686c6f9797",
            "resource": {
                "resourceType": "Specimen",
                "id": "fe5f0099-be56-41dd-a70e-88686c6f9797",
                "meta": {
                    "profile": [
                        "https://fhir.hl7.org.uk/STU3/StructureDefinition/CareConnect-Specimen-1"
                    ]
                },
                "accessionIdentifier": {
                    "system": "http://lab.acme.org/specimens/2011",
                    "value": "07053229/XR Chest"
                },
                "type": {
                    "coding": [
                        {
                            "system": "http://snomed.info/sct",
                            "code": "T016"
                        }
                    ]
                },
                "subject": {
                    "reference": "urn:uuid:1d4558d3-5e6d-4068-bb3e-add0667b272f"
                },
                "receivedTime": "2007-03-27T10:44:00+01:00",
                "collection": {
                    "collectedDateTime": "2007-03-27T10:44:00+01:00"
                }
            }
        },
        {
            "fullUrl": "urn:uuid:fbf0cf1b-0653-46f3-94e5-c0cec4e7cf0e",
            "resource": {
                "resourceType": "Observation",
                "id": "fbf0cf1b-0653-46f3-94e5-c0cec4e7cf0e",
                "meta": {
                    "profile": [
                        "https://fhir.hl7.org.uk/STU3/StructureDefinition/CareConnect-Observation-1"
                    ]
                },
                "status": "unknown",
                "code": {
                    "coding": [
                        {
                            "display": "IMAGING XR Chest"
                        }
                    ]
                },
                "subject": {
                    "reference": "urn:uuid:1d4558d3-5e6d-4068-bb3e-add0667b272f"
                },
                "performer": [
                    {
                        "reference": "urn:uuid:82a8d737-3df9-4ee2-b7cb-4b2c0875a237"
                    },
                    {
                        "reference": "urn:uuid:8132a54b-7a43-48cd-91f9-d04e708c66f6"
                    }
                ],
                "comment": "No lung or mediastinal lesion is seen.\nReporter: Dr E E Scovell",
                "specimen": {
                    "reference": "urn:uuid:fe5f0099-be56-41dd-a70e-88686c6f9797"
                }
            }
        }
    ]
}