{
    "resourceType": "Bundle",
    "id": "39289a64-5156-4dc1-be7d-49a4b18ce61e",
    "meta": {
        "lastUpdated": "2021-04-27T13:31:10.767+01:00",
        "profile": [
            "https://fhir.nhs.uk/STU3/StructureDefinition/ITK-Message-Bundle-1"
        ]
    },
    "identifier": {
        "system": "https://tools.ietf.org/html/rfc4122",
        "value": "900937cc-4c26-4ed5-980c-968d35f9c3bb"
    },
    "type": "message",
    "entry": [
        {
            "fullUrl": "urn:uuid:4606258c-31b4-48e2-afe5-7abde7655023",
            "resource": {
                "resourceType": "MessageHeader",
                "id": "4606258c-31b4-48e2-afe5-7abde7655023",
                "meta": {
                    "profile": [
                        "https://fhir.nhs.uk/STU3/StructureDefinition/ITK-MessageHeader-2"
                    ]
                },
                "extension": [
                    {
                        "url": "https://fhir.nhs.uk/STU3/StructureDefinition/Extension-ITK-MessageHandling-2",
                        "extension": [
                            {
                                "url": "BusAckRequested",
                                "valueBoolean": true
                            },
                            {
                                "url": "InfAckRequested",
                                "valueBoolean": true
                            },
                            {
                                "url": "RecipientType",
                                "valueCoding": {
                                    "system": "https://fhir.nhs.uk/STU3/CodeSystem/ITK-RecipientType-1",
                                    "code": "FA",
                                    "display": "For Action"
                                }
                            },
                            {
                                "url": "SenderReference",
                                "valueString": "None"
                            },
                            {
                                "url": "LocalExtension",
                                "valueString": "None"
                            }
                        ]
                    }
                ],
                "event": {
                    "system": "https://fhir.nhs.uk/STU3/CodeSystem/ITK-MessageEvent-2",
                    "code": "ITK012M",
                    "display": "ITK National Pathology"
                },
                "receiver": {
                    "reference": "urn:uuid:c4718303-75a2-459e-bc6f-b5ba2b316f52"
                },
                "sender": {
                    "reference": "urn:uuid:c58318cc-f466-41a8-83a2-b67f3ef7d23f"
                },
                "timestamp": "2007-03-27T16:11:00.000+01:00",
                "source": {
                    "endpoint": "lab_results_mailbox"
                },
                "responsible": {
                    "reference": "urn:uuid:c58318cc-f466-41a8-83a2-b67f3ef7d23f"
                },
                "focus": [
                    {
                        "reference": "urn:uuid:c0489c40-0f99-4903-bfcb-a75a71911f2f"
                    }
                ]
            }
        },
        {
            "fullUrl": "urn:uuid:8993ae46-65c8-41c3-a5fa-baec9316a5c0",
            "resource": {
                "resourceType": "Patient",
                "id": "8993ae46-65c8-41c3-a5fa-baec9316a5c0",
                "meta": {
                    "profile": [
                        "https://fhir.hl7.org.uk/STU3/StructureDefinition/CareConnect-Patient-1"
                    ]
                },
                "identifier": [
                    {
                        "id": "C930718"
                    }
                ],
                "name": [
                    {
                        "use": "official",
                        "family": "BLESSED",
                        "given": [
                            "BRIAN"
                        ]
                    }
                ],
                "gender": "male",
                "birthDate": "1949-06-09",
                "address": [
                    {
                        "line": [
                            "THE WHITE HOUSE",
                            "LONDON"
                        ]
                    }
                ]
            }
        },
        {
            "fullUrl": "urn:uuid:598577ce-3c5d-4278-9371-e72089885ed6",
            "resource": {
                "resourceType": "Practitioner",
                "id": "598577ce-3c5d-4278-9371-e72089885ed6",
                "meta": {
                    "profile": [
                        "https://fhir.hl7.org.uk/STU3/StructureDefinition/CareConnect-Practitioner-1"
                    ]
                },
                "identifier": [
                    {
                        "system": "https://fhir.nhs.uk/Id/sds-user-id",
                        "value": "G9999999"
                    }
                ],
                "name": [
                    {
                        "text": "DR A DOCTOR"
                    }
                ]
            }
        },
        {
            "fullUrl": "urn:uuid:c4718303-75a2-459e-bc6f-b5ba2b316f52",
            "resource": {
                "resourceType": "Organization",
                "id": "c4718303-75a2-459e-bc6f-b5ba2b316f52",
                "meta": {
                    "profile": [
                        "https://fhir.hl7.org.uk/STU3/StructureDefinition/CareConnect-Organization-1"
                    ]
                },
                "identifier": [
                    {
                        "system": "https://fhir.nhs.uk/Id/ods-organization-code",
                        "value": "L99999"
                    }
                ]
            }
        },
        {
            "fullUrl": "urn:uuid:403c97e4-49ca-4966-9cec-484b5b077ffc",
            "resource": {
                "resourceType": "Practitioner",
                "id": "403c97e4-49ca-4966-9cec-484b5b077ffc",
                "meta": {
                    "profile": [
                        "https://fhir.hl7.org.uk/STU3/StructureDefinition/CareConnect-Practitioner-1"
                    ]
                }
            }
        },
        {
            "fullUrl": "urn:uuid:c58318cc-f466-41a8-83a2-b67f3ef7d23f",
            "resource": {
                "resourceType": "Organization",
                "id": "c58318cc-f466-41a8-83a2-b67f3ef7d23f",
                "meta": {
                    "profile": [
                        "https://fhir.hl7.org.uk/STU3/StructureDefinition/CareConnect-Organization-1"
                    ]
                },
                "identifier": [
                    {
                        "system": "https://fhir.nhs.uk/Id/ods-organization-code",
                        "value": "REF00"
                    }
                ],
                "type": [
                    {
                        "coding": [
                            {
                                "code": "dept",
                                "display": "RCHT CLIN IMG"
                            }
                        ]
                    }
                ]
            }
        },
        {
            "fullUrl": "urn:uuid:67496a17-0be7-4df2-b119-e57897a934f5",
            "resource": {
                "resourceType": "ProcedureRequest",
                "id": "67496a17-0be7-4df2-b119-e57897a934f5",
                "meta": {
                    "profile": [
                        "https://fhir.hl7.org.uk/STU3/StructureDefinition/CareConnect-ProcedureRequest-1"
                    ]
                },
                "status": "active",
                "intent": "order",
                "code": {
                    "text": "unknown"
                },
                "subject": {
                    "reference": "urn:uuid:8993ae46-65c8-41c3-a5fa-baec9316a5c0"
                },
                "requester": {
                    "agent": {
                        "reference": "urn:uuid:598577ce-3c5d-4278-9371-e72089885ed6"
                    },
                    "onBehalfOf": {
                        "reference": "urn:uuid:c4718303-75a2-459e-bc6f-b5ba2b316f52"
                    }
                },
                "performer": {
                    "reference": "urn:uuid:403c97e4-49ca-4966-9cec-484b5b077ffc"
                }
            }
        },
        {
            "fullUrl": "urn:uuid:c0489c40-0f99-4903-bfcb-a75a71911f2f",
            "resource": {
                "resourceType": "DiagnosticReport",
                "id": "c0489c40-0f99-4903-bfcb-a75a71911f2f",
                "meta": {
                    "profile": [
                        "https://fhir.hl7.org.uk/STU3/StructureDefinition/CareConnect-DiagnosticReport-1"
                    ]
                },
                "identifier": [
                    {
                        "system": "https://tools.ietf.org/html/rfc4122",
                        "value": "468158/1"
                    }
                ],
                "basedOn": [
                    {
                        "reference": "urn:uuid:67496a17-0be7-4df2-b119-e57897a934f5"
                    }
                ],
                "status": "unknown",
                "code": {
                    "coding": [
                        {
                            "system": "http://snomed.info/sct",
                            "code": "721981007",
                            "display": "Diagnostic studies report"
                        }
                    ]
                },
                "subject": {
                    "reference": "urn:uuid:8993ae46-65c8-41c3-a5fa-baec9316a5c0"
                },
                "issued": "2007-03-27T13:20:00.000+01:00",
                "performer": [
                    {
                        "actor": {
                            "reference": "urn:uuid:c58318cc-f466-41a8-83a2-b67f3ef7d23f"
                        }
                    },
                    {
                        "actor": {
                            "reference": "urn:uuid:403c97e4-49ca-4966-9cec-484b5b077ffc"
                        }
                    }
                ],
                "specimen": [
                    {
                        "reference": "urn:uuid:d3e1445c-65f2-4ce0-b4e1-e3c419381dde"
                    }
                ],
                "result": [
                    {
                        "reference": "urn:uuid:e9c849d6-ee49-4542-86f2-71838ce1de83"
                    }
                ]
            }
        },
        {
            "fullUrl": "urn:uuid:d3e1445c-65f2-4ce0-b4e1-e3c419381dde",
            "resource": {
                "resourceType": "Specimen",
                "id": "d3e1445c-65f2-4ce0-b4e1-e3c419381dde",
                "meta": {
                    "profile": [
                        "https://fhir.hl7.org.uk/STU3/StructureDefinition/CareConnect-Specimen-1"
                    ]
                },
                "accessionIdentifier": {
                    "system": "http://lab.acme.org/specimens/2011",
                    "value": "07053229/XR Chest"
                },
                "type": {
                    "coding": [
                        {
                            "system": "http://snomed.info/sct",
                            "code": "T016"
                        }
                    ]
                },
                "subject": {
                    "reference": "urn:uuid:8993ae46-65c8-41c3-a5fa-baec9316a5c0"
                },
                "receivedTime": "2007-03-27T10:44:00+01:00",
                "collection": {
                    "collectedDateTime": "2007-03-27T10:44:00+01:00"
                }
            }
        },
        {
            "fullUrl": "urn:uuid:e9c849d6-ee49-4542-86f2-71838ce1de83",
            "resource": {
                "resourceType": "Observation",
                "id": "e9c849d6-ee49-4542-86f2-71838ce1de83",
                "meta": {
                    "profile": [
                        "https://fhir.hl7.org.uk/STU3/StructureDefinition/CareConnect-Observation-1"
                    ]
                },
                "status": "unknown",
                "code": {
                    "coding": [
                        {
                            "display": "IMAGING XR Chest"
                        }
                    ]
                },
                "subject": {
                    "reference": "urn:uuid:8993ae46-65c8-41c3-a5fa-baec9316a5c0"
                },
                "performer": [
                    {
                        "reference": "urn:uuid:c58318cc-f466-41a8-83a2-b67f3ef7d23f"
                    },
                    {
                        "reference": "urn:uuid:403c97e4-49ca-4966-9cec-484b5b077ffc"
                    }
                ],
                "comment": "No lung or mediastinal lesion is seen.\nReporter: Dr E E Scovell",
                "specimen": {
                    "reference": "urn:uuid:d3e1445c-65f2-4ce0-b4e1-e3c419381dde"
                }
            }
        }
    ]
}