{
    "resourceType": "Bundle",
    "id": "d8741805-ff2d-42a9-8f14-9e7be27caf10",
    "meta": {
        "lastUpdated": "2021-06-07T12:29:10.859+01:00",
        "profile": [ "https://fhir.nhs.uk/STU3/StructureDefinition/ITK-Message-Bundle-1" ]
    },
    "identifier": {
        "system": "https://tools.ietf.org/html/rfc4122",
        "value": "4622d282-6115-4281-a2a0-ba5f623632c1"
    },
    "type": "message",
    "entry": [ {
        "fullUrl": "urn:uuid:40fbfbdc-8168-40f0-a791-c2178fb2b32f",
        "resource": {
            "resourceType": "MessageHeader",
            "id": "40fbfbdc-8168-40f0-a791-c2178fb2b32f",
            "meta": {
                "profile": [ "https://fhir.nhs.uk/STU3/StructureDefinition/ITK-MessageHeader-2" ]
            },
            "extension": [ {
                "url": "https://fhir.nhs.uk/STU3/StructureDefinition/Extension-ITK-MessageHandling-2",
                "extension": [ {
                    "url": "BusAckRequested",
                    "valueBoolean": true
                }, {
                    "url": "InfAckRequested",
                    "valueBoolean": true
                }, {
                    "url": "RecipientType",
                    "valueCoding": {
                        "system": "https://fhir.nhs.uk/STU3/CodeSystem/ITK-RecipientType-1",
                        "code": "FA",
                        "display": "For Action"
                    }
                }, {
                    "url": "SenderReference",
                    "valueString": "None"
                }, {
                    "url": "LocalExtension",
                    "valueString": "None"
                } ]
            } ],
            "event": {
                "system": "https://fhir.nhs.uk/STU3/CodeSystem/ITK-MessageEvent-2",
                "code": "ITK012M",
                "display": "ITK National Pathology"
            },
            "receiver": {
                "reference": "urn:uuid:bff2d71e-0891-46b4-89c3-7baa8bceb80f"
            },
            "sender": {
                "reference": "urn:uuid:fb534cc0-03d5-42d4-8fc0-d0b948855839"
            },
            "timestamp": "2007-03-27T16:11:00.000+01:00",
            "source": {
                "endpoint": "lab_results_mailbox"
            },
            "responsible": {
                "reference": "urn:uuid:fb534cc0-03d5-42d4-8fc0-d0b948855839"
            },
            "focus": [ {
                "reference": "urn:uuid:f01f957c-8867-4391-8eb3-6c8d9aec0aca"
            } ]
        }
    }, {
        "fullUrl": "urn:uuid:c34c4237-154a-417a-bc03-81c43375cda0",
        "resource": {
            "resourceType": "Patient",
            "id": "c34c4237-154a-417a-bc03-81c43375cda0",
            "meta": {
                "profile": [ "https://fhir.hl7.org.uk/STU3/StructureDefinition/CareConnect-Patient-1" ]
            },
            "identifier": [ {
                "id": "C930718"
            } ],
            "name": [ {
                "use": "official",
                "family": "BLESSED",
                "given": [ "BRIAN" ]
            } ],
            "gender": "male",
            "birthDate": "1949-06-09",
            "address": [ {
                "line": [ "THE WHITE HOUSE", "LONDON" ]
            } ]
        }
    }, {
        "fullUrl": "urn:uuid:9ebf44a8-97f0-4230-8508-de3141ada30c",
        "resource": {
            "resourceType": "Practitioner",
            "id": "9ebf44a8-97f0-4230-8508-de3141ada30c",
            "meta": {
                "profile": [ "https://fhir.hl7.org.uk/STU3/StructureDefinition/CareConnect-Practitioner-1" ]
            },
            "identifier": [ {
                "value": "G9999999"
            } ],
            "name": [ {
                "text": "DR A DOCTOR"
            } ]
        }
    }, {
        "fullUrl": "urn:uuid:bff2d71e-0891-46b4-89c3-7baa8bceb80f",
        "resource": {
            "resourceType": "Organization",
            "id": "bff2d71e-0891-46b4-89c3-7baa8bceb80f",
            "meta": {
                "profile": [ "https://fhir.hl7.org.uk/STU3/StructureDefinition/CareConnect-Organization-1" ]
            },
            "identifier": [ {
                "system": "https://fhir.nhs.uk/Id/ods-organization-code",
                "value": "L99999"
            } ]
        }
    }, {
        "fullUrl": "urn:uuid:cc838009-ebe5-450d-ad83-d71ea44c6c31",
        "resource": {
            "resourceType": "Practitioner",
            "id": "cc838009-ebe5-450d-ad83-d71ea44c6c31",
            "meta": {
                "profile": [ "https://fhir.hl7.org.uk/STU3/StructureDefinition/CareConnect-Practitioner-1" ]
            }
        }
    }, {
        "fullUrl": "urn:uuid:fb534cc0-03d5-42d4-8fc0-d0b948855839",
        "resource": {
            "resourceType": "Organization",
            "id": "fb534cc0-03d5-42d4-8fc0-d0b948855839",
            "meta": {
                "profile": [ "https://fhir.hl7.org.uk/STU3/StructureDefinition/CareConnect-Organization-1" ]
            },
            "identifier": [ {
                "system": "https://fhir.nhs.uk/Id/ods-organization-code",
                "value": "REF00"
            } ],
            "type": [ {
                "coding": [ {
                    "code": "dept",
                    "display": "RCHT CLIN IMG"
                } ]
            } ]
        }
    }, {
        "fullUrl": "urn:uuid:7a1540a9-8920-4a79-b832-39addbd3a0ec",
        "resource": {
            "resourceType": "ProcedureRequest",
            "id": "7a1540a9-8920-4a79-b832-39addbd3a0ec",
            "meta": {
                "profile": [ "https://fhir.hl7.org.uk/STU3/StructureDefinition/CareConnect-ProcedureRequest-1" ]
            },
            "status": "active",
            "intent": "order",
            "code": {
                "coding": [ {
                    "system": "http://snomed.info/sct",
                    "code": "15220000",
                    "display": "Laboratory test (procedure)"
                } ]
            },
            "subject": {
                "reference": "urn:uuid:c34c4237-154a-417a-bc03-81c43375cda0"
            },
            "requester": {
                "agent": {
                    "reference": "urn:uuid:9ebf44a8-97f0-4230-8508-de3141ada30c"
                },
                "onBehalfOf": {
                    "reference": "urn:uuid:bff2d71e-0891-46b4-89c3-7baa8bceb80f"
                }
            },
            "performer": {
                "reference": "urn:uuid:cc838009-ebe5-450d-ad83-d71ea44c6c31"
            }
        }
    }, {
        "fullUrl": "urn:uuid:f01f957c-8867-4391-8eb3-6c8d9aec0aca",
        "resource": {
            "resourceType": "DiagnosticReport",
            "id": "f01f957c-8867-4391-8eb3-6c8d9aec0aca",
            "meta": {
                "profile": [ "https://fhir.hl7.org.uk/STU3/StructureDefinition/CareConnect-DiagnosticReport-1" ]
            },
            "identifier": [ {
                "system": "https://tools.ietf.org/html/rfc4122",
                "value": "468158/1"
            } ],
            "basedOn": [ {
                "reference": "urn:uuid:7a1540a9-8920-4a79-b832-39addbd3a0ec"
            } ],
            "status": "unknown",
            "code": {
                "coding": [ {
                    "system": "http://snomed.info/sct",
                    "code": "721981007",
                    "display": "Diagnostic studies report"
                } ]
            },
            "subject": {
                "reference": "urn:uuid:c34c4237-154a-417a-bc03-81c43375cda0"
            },
            "issued": "2007-03-27T13:20:00.000+01:00",
            "performer": [ {
                "actor": {
                    "reference": "urn:uuid:fb534cc0-03d5-42d4-8fc0-d0b948855839"
                }
            }, {
                "actor": {
                    "reference": "urn:uuid:cc838009-ebe5-450d-ad83-d71ea44c6c31"
                }
            } ],
            "specimen": [ {
                "reference": "urn:uuid:ff548470-cfb6-489f-9b71-2033165c2bfa"
            } ],
            "result": [ {
                "reference": "urn:uuid:8cdb9659-8f7c-40b5-b541-e9442a212389"
            } ]
        }
    }, {
        "fullUrl": "urn:uuid:ff548470-cfb6-489f-9b71-2033165c2bfa",
        "resource": {
            "resourceType": "Specimen",
            "id": "ff548470-cfb6-489f-9b71-2033165c2bfa",
            "meta": {
                "profile": [ "https://fhir.hl7.org.uk/STU3/StructureDefinition/CareConnect-Specimen-1" ]
            },
            "accessionIdentifier": {
                "value": "07053229/XR Chest"
            },
            "type": {
                "coding": [ {
                    "system": "http://snomed.info/sct",
                    "code": "T016"
                } ]
            },
            "subject": {
                "reference": "urn:uuid:c34c4237-154a-417a-bc03-81c43375cda0"
            },
            "receivedTime": "2007-03-27T10:44:00+01:00",
            "collection": {
                "collectedDateTime": "2007-03-27T10:44:00+01:00"
            }
        }
    }, {
        "fullUrl": "urn:uuid:8cdb9659-8f7c-40b5-b541-e9442a212389",
        "resource": {
            "resourceType": "Observation",
            "id": "8cdb9659-8f7c-40b5-b541-e9442a212389",
            "meta": {
                "profile": [ "https://fhir.hl7.org.uk/STU3/StructureDefinition/CareConnect-Observation-1" ]
            },
            "status": "unknown",
            "code": {
                "coding": [ {
                    "display": "IMAGING XR Chest"
                } ]
            },
            "subject": {
                "reference": "urn:uuid:c34c4237-154a-417a-bc03-81c43375cda0"
            },
            "performer": [ {
                "reference": "urn:uuid:fb534cc0-03d5-42d4-8fc0-d0b948855839"
            }, {
                "reference": "urn:uuid:cc838009-ebe5-450d-ad83-d71ea44c6c31"
            } ],
            "comment": "No lung or mediastinal lesion is seen.\nReporter: Dr E E Scovell",
            "specimen": {
                "reference": "urn:uuid:ff548470-cfb6-489f-9b71-2033165c2bfa"
            }
        }
    } ]
}