{
    "resourceType": "Bundle",
    "id": "59f1d0a0-427a-4ab0-a15e-c45e120ca3a7",
    "meta": {
        "lastUpdated": "2021-05-31T12:30:01.853+01:00",
        "profile": [
            "https://fhir.nhs.uk/STU3/StructureDefinition/ITK-Message-Bundle-1"
        ]
    },
    "identifier": {
        "system": "https://tools.ietf.org/html/rfc4122",
        "value": "f76c78d3-b61a-4d94-910f-8cd77d7085ba"
    },
    "type": "message",
    "entry": [
        {
            "fullUrl": "urn:uuid:09315716-5823-4625-a34c-137e6501d39d",
            "resource": {
                "resourceType": "MessageHeader",
                "id": "09315716-5823-4625-a34c-137e6501d39d",
                "meta": {
                    "profile": [
                        "https://fhir.nhs.uk/STU3/StructureDefinition/ITK-MessageHeader-2"
                    ]
                },
                "extension": [
                    {
                        "url": "https://fhir.nhs.uk/STU3/StructureDefinition/Extension-ITK-MessageHandling-2",
                        "extension": [
                            {
                                "url": "BusAckRequested",
                                "valueBoolean": true
                            },
                            {
                                "url": "InfAckRequested",
                                "valueBoolean": true
                            },
                            {
                                "url": "RecipientType",
                                "valueCoding": {
                                    "system": "https://fhir.nhs.uk/STU3/CodeSystem/ITK-RecipientType-1",
                                    "code": "FA",
                                    "display": "For Action"
                                }
                            },
                            {
                                "url": "SenderReference",
                                "valueString": "None"
                            },
                            {
                                "url": "LocalExtension",
                                "valueString": "None"
                            }
                        ]
                    }
                ],
                "event": {
                    "system": "https://fhir.nhs.uk/STU3/CodeSystem/ITK-MessageEvent-2",
                    "code": "ITK012M",
                    "display": "ITK National Pathology"
                },
                "receiver": {
                    "reference": "urn:uuid:30f11509-a9bc-421a-abad-a2dadbfe3dfb"
                },
                "sender": {
                    "reference": "urn:uuid:67ff6bd0-3a48-4f84-a3e3-e81325a5e33d"
                },
                "timestamp": "2007-03-27T16:11:00.000+01:00",
                "source": {
                    "endpoint": "lab_results_mailbox"
                },
                "responsible": {
                    "reference": "urn:uuid:67ff6bd0-3a48-4f84-a3e3-e81325a5e33d"
                },
                "focus": [
                    {
                        "reference": "urn:uuid:6ae39041-b685-4e6c-abcf-f01e18c3b6dc"
                    }
                ]
            }
        },
        {
            "fullUrl": "urn:uuid:5e63bb11-48e9-43f0-9364-31fa31f8d464",
            "resource": {
                "resourceType": "Patient",
                "id": "5e63bb11-48e9-43f0-9364-31fa31f8d464",
                "meta": {
                    "profile": [
                        "https://fhir.hl7.org.uk/STU3/StructureDefinition/CareConnect-Patient-1"
                    ]
                },
                "identifier": [
                    {
                        "id": "C905711"
                    }
                ],
                "name": [
                    {
                        "use": "official",
                        "family": "PITSTOP",
                        "given": [
                            "PENELOPE",
                            "JANE"
                        ]
                    }
                ],
                "gender": "female",
                "birthDate": "1950-02-15",
                "address": [
                    {
                        "line": [
                            "HILLTOP FARM",
                            "TRUMPTON"
                        ]
                    }
                ]
            }
        },
        {
            "fullUrl": "urn:uuid:4cafb558-e009-455e-8f4f-4667c5055b40",
            "resource": {
                "resourceType": "Practitioner",
                "id": "4cafb558-e009-455e-8f4f-4667c5055b40",
                "meta": {
                    "profile": [
                        "https://fhir.hl7.org.uk/STU3/StructureDefinition/CareConnect-Practitioner-1"
                    ]
                },
                "identifier": [
                    {
                        "system": "https://fhir.nhs.uk/Id/sds-user-id",
                        "value": "G9304284"
                    }
                ],
                "name": [
                    {
                        "text": "DR A DOCTOR"
                    }
                ]
            }
        },
        {
            "fullUrl": "urn:uuid:30f11509-a9bc-421a-abad-a2dadbfe3dfb",
            "resource": {
                "resourceType": "Organization",
                "id": "30f11509-a9bc-421a-abad-a2dadbfe3dfb",
                "meta": {
                    "profile": [
                        "https://fhir.hl7.org.uk/STU3/StructureDefinition/CareConnect-Organization-1"
                    ]
                },
                "identifier": [
                    {
                        "system": "https://fhir.nhs.uk/Id/ods-organization-code",
                        "value": "L99999"
                    }
                ]
            }
        },
        {
            "fullUrl": "urn:uuid:75958edb-f8bb-4bdc-980a-0f611f12fef6",
            "resource": {
                "resourceType": "Practitioner",
                "id": "75958edb-f8bb-4bdc-980a-0f611f12fef6",
                "meta": {
                    "profile": [
                        "https://fhir.hl7.org.uk/STU3/StructureDefinition/CareConnect-Practitioner-1"
                    ]
                }
            }
        },
        {
            "fullUrl": "urn:uuid:67ff6bd0-3a48-4f84-a3e3-e81325a5e33d",
            "resource": {
                "resourceType": "Organization",
                "id": "67ff6bd0-3a48-4f84-a3e3-e81325a5e33d",
                "meta": {
                    "profile": [
                        "https://fhir.hl7.org.uk/STU3/StructureDefinition/CareConnect-Organization-1"
                    ]
                },
                "identifier": [
                    {
                        "system": "https://fhir.nhs.uk/Id/ods-organization-code",
                        "value": "REF00"
                    }
                ],
                "type": [
                    {
                        "coding": [
                            {
                                "code": "dept",
                                "display": "RCHT CLIN IMG"
                            }
                        ]
                    }
                ]
            }
        },
        {
            "fullUrl": "urn:uuid:0e84c104-6f23-4056-9ebf-0cacbc6d2bf1",
            "resource": {
                "resourceType": "ProcedureRequest",
                "id": "0e84c104-6f23-4056-9ebf-0cacbc6d2bf1",
                "meta": {
                    "profile": [
                        "https://fhir.hl7.org.uk/STU3/StructureDefinition/CareConnect-ProcedureRequest-1"
                    ]
                },
                "status": "active",
                "intent": "order",
                "code": {
                    "coding": [
                        {
                            "system": "http://snomed.info/sct",
                            "code": "15220000",
                            "display": "Laboratory test (procedure)"
                        }
                    ]
                },
                "subject": {
                    "reference": "urn:uuid:5e63bb11-48e9-43f0-9364-31fa31f8d464"
                },
                "requester": {
                    "agent": {
                        "reference": "urn:uuid:4cafb558-e009-455e-8f4f-4667c5055b40"
                    },
                    "onBehalfOf": {
                        "reference": "urn:uuid:30f11509-a9bc-421a-abad-a2dadbfe3dfb"
                    }
                },
                "performer": {
                    "reference": "urn:uuid:75958edb-f8bb-4bdc-980a-0f611f12fef6"
                }
            }
        },
        {
            "fullUrl": "urn:uuid:6ae39041-b685-4e6c-abcf-f01e18c3b6dc",
            "resource": {
                "resourceType": "DiagnosticReport",
                "id": "6ae39041-b685-4e6c-abcf-f01e18c3b6dc",
                "meta": {
                    "profile": [
                        "https://fhir.hl7.org.uk/STU3/StructureDefinition/CareConnect-DiagnosticReport-1"
                    ]
                },
                "identifier": [
                    {
                        "system": "https://tools.ietf.org/html/rfc4122",
                        "value": "468158/3"
                    }
                ],
                "basedOn": [
                    {
                        "reference": "urn:uuid:0e84c104-6f23-4056-9ebf-0cacbc6d2bf1"
                    }
                ],
                "status": "unknown",
                "code": {
                    "coding": [
                        {
                            "system": "http://snomed.info/sct",
                            "code": "721981007",
                            "display": "Diagnostic studies report"
                        }
                    ]
                },
                "subject": {
                    "reference": "urn:uuid:5e63bb11-48e9-43f0-9364-31fa31f8d464"
                },
                "issued": "2007-03-27T13:13:00.000+01:00",
                "performer": [
                    {
                        "actor": {
                            "reference": "urn:uuid:67ff6bd0-3a48-4f84-a3e3-e81325a5e33d"
                        }
                    },
                    {
                        "actor": {
                            "reference": "urn:uuid:75958edb-f8bb-4bdc-980a-0f611f12fef6"
                        }
                    }
                ],
                "specimen": [
                    {
                        "reference": "urn:uuid:d8184fdd-1825-41e2-86b5-8720d9e3cbfa"
                    }
                ],
                "result": [
                    {
                        "reference": "urn:uuid:c90e1148-c0b1-4384-ab6c-41509404536d"
                    }
                ]
            }
        },
        {
            "fullUrl": "urn:uuid:d8184fdd-1825-41e2-86b5-8720d9e3cbfa",
            "resource": {
                "resourceType": "Specimen",
                "id": "d8184fdd-1825-41e2-86b5-8720d9e3cbfa",
                "meta": {
                    "profile": [
                        "https://fhir.hl7.org.uk/STU3/StructureDefinition/CareConnect-Specimen-1"
                    ]
                },
                "accessionIdentifier": {
                    "system": "http://lab.acme.org/specimens/2011",
                    "value": "07052525/XR Chest"
                },
                "type": {
                    "coding": [
                        {
                            "system": "http://snomed.info/sct",
                            "code": "T016"
                        }
                    ]
                },
                "subject": {
                    "reference": "urn:uuid:5e63bb11-48e9-43f0-9364-31fa31f8d464"
                },
                "receivedTime": "2007-03-26T12:37:00+01:00",
                "collection": {
                    "collectedDateTime": "2007-03-26T12:37:00+01:00"
                }
            }
        },
        {
            "fullUrl": "urn:uuid:c90e1148-c0b1-4384-ab6c-41509404536d",
            "resource": {
                "resourceType": "Observation",
                "id": "c90e1148-c0b1-4384-ab6c-41509404536d",
                "meta": {
                    "profile": [
                        "https://fhir.hl7.org.uk/STU3/StructureDefinition/CareConnect-Observation-1"
                    ]
                },
                "status": "unknown",
                "code": {
                    "coding": [
                        {
                            "display": "IMAGING XR Chest"
                        }
                    ]
                },
                "subject": {
                    "reference": "urn:uuid:5e63bb11-48e9-43f0-9364-31fa31f8d464"
                },
                "performer": [
                    {
                        "reference": "urn:uuid:67ff6bd0-3a48-4f84-a3e3-e81325a5e33d"
                    },
                    {
                        "reference": "urn:uuid:75958edb-f8bb-4bdc-980a-0f611f12fef6"
                    }
                ],
                "comment": "No lung or mediastinal lesion is seen.\nReporter: Dr E E SMITH",
                "specimen": {
                    "reference": "urn:uuid:d8184fdd-1825-41e2-86b5-8720d9e3cbfa"
                }
            }
        }
    ]
}