{
    "resourceType": "Bundle",
    "id": "f4fad6d3-7326-46e3-9d66-50b1a4a2f668",
    "meta": {
        "lastUpdated": "2021-04-22T13:20:32.161+02:00",
        "profile": [
            "https://fhir.nhs.uk/STU3/StructureDefinition/ITK-Message-Bundle-1"
        ]
    },
    "identifier": {
        "system": "https://tools.ietf.org/html/rfc4122",
        "value": "fbd2892a-ba1e-4247-9f59-059ee9c1dd17"
    },
    "type": "message",
    "entry": [
        {
            "fullUrl": "urn:uuid:97378dfc-13f7-4938-a158-0dbc44bfab39",
            "resource": {
                "resourceType": "MessageHeader",
                "id": "97378dfc-13f7-4938-a158-0dbc44bfab39",
                "meta": {
                    "profile": [
                        "https://fhir.nhs.uk/STU3/StructureDefinition/ITK-MessageHeader-2"
                    ]
                },
                "extension": [
                    {
                        "url": "https://fhir.nhs.uk/STU3/StructureDefinition/Extension-ITK-MessageHandling-2",
                        "extension": [
                            {
                                "url": "BusAckRequested",
                                "valueBoolean": true
                            },
                            {
                                "url": "InfAckRequested",
                                "valueBoolean": true
                            },
                            {
                                "url": "RecipientType",
                                "valueCoding": {
                                    "system": "https://fhir.nhs.uk/STU3/CodeSystem/ITK-RecipientType-1",
                                    "code": "FA",
                                    "display": "For Action"
                                }
                            },
                            {
                                "url": "SenderReference",
                                "valueString": "None"
                            },
                            {
                                "url": "LocalExtension",
                                "valueString": "None"
                            }
                        ]
                    }
                ],
                "event": {
                    "system": "https://fhir.nhs.uk/STU3/CodeSystem/ITK-MessageEvent-2",
                    "code": "ITK012M",
                    "display": "ITK National Pathology"
                },
                "receiver": {
                    "reference": "urn:uuid:b1bd30ed-849a-45b6-a777-368a66c4f59f"
                },
                "sender": {
                    "reference": "urn:uuid:a5e90a9f-6482-4081-970f-ca07d3412f8f"
                },
                "timestamp": "2010-03-01T18:51:00.000+00:00",
                "source": {
                    "endpoint": "lab_results_mailbox"
                },
                "responsible": {
                    "reference": "urn:uuid:a5e90a9f-6482-4081-970f-ca07d3412f8f"
                },
                "focus": [
                    {
                        "reference": "urn:uuid:91059b5a-c76e-4796-bfaa-2dccd79f1741"
                    }
                ]
            }
        },
        {
            "fullUrl": "urn:uuid:ce98248a-c7a3-473e-8660-efc482a3d480",
            "resource": {
                "resourceType": "Patient",
                "id": "ce98248a-c7a3-473e-8660-efc482a3d480",
                "meta": {
                    "profile": [
                        "https://fhir.hl7.org.uk/STU3/StructureDefinition/CareConnect-Patient-1"
                    ]
                },
                "identifier": [
                    {
                        "system": "https://fhir.nhs.uk/Id/nhs-number",
                        "value": "7000000007"
                    }
                ],
                "name": [
                    {
                        "family": "MILLER",
                        "given": [
                            "WINDY",
                            "BRIAN"
                        ],
                        "prefix": [
                            "MR"
                        ]
                    }
                ],
                "gender": "male",
                "birthDate": "1946-09-18",
                "address": [
                    {
                        "line": [
                            "THE WINDMILL",
                            "WINDMILL HILL"
                        ],
                        "postalCode": "PL1 1AA"
                    }
                ]
            }
        },
        {
            "fullUrl": "urn:uuid:b22f695b-d7d4-4e40-9bb2-36f39d00c0c3",
            "resource": {
                "resourceType": "Practitioner",
                "id": "b22f695b-d7d4-4e40-9bb2-36f39d00c0c3",
                "meta": {
                    "profile": [
                        "https://fhir.hl7.org.uk/STU3/StructureDefinition/CareConnect-Practitioner-1"
                    ]
                },
                "identifier": [
                    {
                        "system": "https://fhir.nhs.uk/Id/sds-user-id",
                        "value": "G9304284"
                    }
                ],
                "name": [
                    {
                        "text": "DR A DOCTOR"
                    }
                ]
            }
        },
        {
            "fullUrl": "urn:uuid:b1bd30ed-849a-45b6-a777-368a66c4f59f",
            "resource": {
                "resourceType": "Organization",
                "id": "b1bd30ed-849a-45b6-a777-368a66c4f59f",
                "meta": {
                    "profile": [
                        "https://fhir.hl7.org.uk/STU3/StructureDefinition/CareConnect-Organization-1"
                    ]
                },
                "identifier": [
                    {
                        "system": "https://fhir.nhs.uk/Id/ods-organization-code",
                        "value": "L99999"
                    }
                ]
            }
        },
        {
            "fullUrl": "urn:uuid:171f7ee4-6bb8-4805-8fbc-e3e96062d72b",
            "resource": {
                "resourceType": "Practitioner",
                "id": "171f7ee4-6bb8-4805-8fbc-e3e96062d72b",
                "meta": {
                    "profile": [
                        "https://fhir.hl7.org.uk/STU3/StructureDefinition/CareConnect-Practitioner-1"
                    ]
                }
            }
        },
        {
            "fullUrl": "urn:uuid:a5e90a9f-6482-4081-970f-ca07d3412f8f",
            "resource": {
                "resourceType": "Organization",
                "id": "a5e90a9f-6482-4081-970f-ca07d3412f8f",
                "meta": {
                    "profile": [
                        "https://fhir.hl7.org.uk/STU3/StructureDefinition/CareConnect-Organization-1"
                    ]
                },
                "identifier": [
                    {
                        "system": "https://fhir.nhs.uk/Id/ods-organization-code",
                        "value": "REF00"
                    }
                ],
                "type": [
                    {
                        "coding": [
                            {
                                "code": "dept",
                                "display": "TRELISKE HAE/CH"
                            }
                        ]
                    }
                ]
            }
        },
        {
            "fullUrl": "urn:uuid:d9a4182f-a5ed-4fac-9f04-2690757aa540",
            "resource": {
                "resourceType": "ProcedureRequest",
                "id": "d9a4182f-a5ed-4fac-9f04-2690757aa540",
                "meta": {
                    "profile": [
                        "https://fhir.hl7.org.uk/STU3/StructureDefinition/CareConnect-ProcedureRequest-1"
                    ]
                },
                "status": "unknown",
                "intent": "order",
                "code": {
                    "text": "unknown"
                },
                "subject": {
                    "reference": "urn:uuid:ce98248a-c7a3-473e-8660-efc482a3d480"
                },
                "requester": {
                    "agent": {
                        "reference": "urn:uuid:b22f695b-d7d4-4e40-9bb2-36f39d00c0c3"
                    },
                    "onBehalfOf": {
                        "reference": "urn:uuid:b1bd30ed-849a-45b6-a777-368a66c4f59f"
                    }
                },
                "performer": {
                    "reference": "urn:uuid:171f7ee4-6bb8-4805-8fbc-e3e96062d72b"
                },
                "note": [
                    {
                        "text": "MICROANEURYSM R EYE"
                    }
                ]
            }
        },
        {
            "fullUrl": "urn:uuid:91059b5a-c76e-4796-bfaa-2dccd79f1741",
            "resource": {
                "resourceType": "DiagnosticReport",
                "id": "91059b5a-c76e-4796-bfaa-2dccd79f1741",
                "meta": {
                    "profile": [
                        "https://fhir.hl7.org.uk/STU3/StructureDefinition/CareConnect-DiagnosticReport-1"
                    ]
                },
                "identifier": [
                    {
                        "system": "https://tools.ietf.org/html/rfc4122",
                        "value": "428090/1"
                    }
                ],
                "basedOn": [
                    {
                        "reference": "urn:uuid:d9a4182f-a5ed-4fac-9f04-2690757aa540"
                    }
                ],
                "status": "unknown",
                "code": {
                    "coding": [
                        {
                            "system": "http://snomed.info/sct",
                            "code": "721981007",
                            "display": "Diagnostic studies report"
                        }
                    ]
                },
                "subject": {
                    "reference": "urn:uuid:ce98248a-c7a3-473e-8660-efc482a3d480"
                },
                "issued": "2003-03-04T18:14:00.000+01:00",
                "performer": [
                    {
                        "actor": {
                            "reference": "urn:uuid:a5e90a9f-6482-4081-970f-ca07d3412f8f"
                        }
                    },
                    {
                        "actor": {
                            "reference": "urn:uuid:171f7ee4-6bb8-4805-8fbc-e3e96062d72b"
                        }
                    }
                ],
                "specimen": [
                    {
                        "reference": "urn:uuid:2ceef950-4697-4b3d-bbf3-092786b908c5"
                    }
                ],
                "result": [
                    {
                        "reference": "urn:uuid:6b2483a3-d8f7-4017-b353-f0763d3b58a2"
                    }
                ]
            }
        },
        {
            "fullUrl": "urn:uuid:2ceef950-4697-4b3d-bbf3-092786b908c5",
            "resource": {
                "resourceType": "Specimen",
                "id": "2ceef950-4697-4b3d-bbf3-092786b908c5",
                "meta": {
                    "profile": [
                        "https://fhir.hl7.org.uk/STU3/StructureDefinition/CareConnect-Specimen-1"
                    ]
                },
                "accessionIdentifier": {
                    "system": "http://lab.acme.org/specimens/2011",
                    "value": "CH30304/6285Q"
                },
                "type": {
                    "coding": [
                        {
                            "system": "http://snomed.info/sct",
                            "code": "T026"
                        }
                    ]
                },
                "subject": {
                    "reference": "urn:uuid:ce98248a-c7a3-473e-8660-efc482a3d480"
                },
                "receivedTime": "2003-03-04T16:40:00+01:00",
                "collection": {
                    "collectedDateTime": "2003-03-04T11:30:00+01:00"
                }
            }
        },
        {
            "fullUrl": "urn:uuid:6b2483a3-d8f7-4017-b353-f0763d3b58a2",
            "resource": {
                "resourceType": "Observation",
                "id": "6b2483a3-d8f7-4017-b353-f0763d3b58a2",
                "meta": {
                    "profile": [
                        "https://fhir.hl7.org.uk/STU3/StructureDefinition/CareConnect-Observation-1"
                    ]
                },
                "status": "unknown",
                "code": {
                    "coding": [
                        {
                            "system": "http://read.info/readv2",
                            "code": "424.."
                        }
                    ]
                },
                "subject": {
                    "reference": "urn:uuid:ce98248a-c7a3-473e-8660-efc482a3d480"
                },
                "performer": [
                    {
                        "reference": "urn:uuid:a5e90a9f-6482-4081-970f-ca07d3412f8f"
                    },
                    {
                        "reference": "urn:uuid:171f7ee4-6bb8-4805-8fbc-e3e96062d72b"
                    }
                ],
                "specimen": {
                    "reference": "urn:uuid:2ceef950-4697-4b3d-bbf3-092786b908c5"
                },
                "related": [
                    {
                        "type": "has-member",
                        "target": {
                            "reference": "urn:uuid:6791d5be-079e-45d0-8268-05da5383776b"
                        }
                    },
                    {
                        "type": "has-member",
                        "target": {
                            "reference": "urn:uuid:383da439-3f56-4567-94f8-4216b9f91aa5"
                        }
                    },
                    {
                        "type": "has-member",
                        "target": {
                            "reference": "urn:uuid:18ccea40-750b-4a58-bad2-292d4212c4c0"
                        }
                    },
                    {
                        "type": "has-member",
                        "target": {
                            "reference": "urn:uuid:5cd3fc99-f6b3-4f7d-8e64-272f53b1793e"
                        }
                    },
                    {
                        "type": "has-member",
                        "target": {
                            "reference": "urn:uuid:9aee04a8-0867-4135-8128-9eb2b8bca936"
                        }
                    },
                    {
                        "type": "has-member",
                        "target": {
                            "reference": "urn:uuid:c01771a9-9ce4-457d-992c-13380a43ec1d"
                        }
                    },
                    {
                        "type": "has-member",
                        "target": {
                            "reference": "urn:uuid:82638fb4-0b9a-483a-8163-9527baf8f35d"
                        }
                    },
                    {
                        "type": "has-member",
                        "target": {
                            "reference": "urn:uuid:8f6fcdb2-76b6-4954-8e8a-933aa03ad7da"
                        }
                    },
                    {
                        "type": "has-member",
                        "target": {
                            "reference": "urn:uuid:7b52dbd9-ffdb-4ccc-b438-14efa2a54e9b"
                        }
                    },
                    {
                        "type": "has-member",
                        "target": {
                            "reference": "urn:uuid:4d8373b4-58cf-4ac2-b305-0c693ad9db1d"
                        }
                    },
                    {
                        "type": "has-member",
                        "target": {
                            "reference": "urn:uuid:30c63c1b-09d4-41e7-85e2-71120806075c"
                        }
                    },
                    {
                        "type": "has-member",
                        "target": {
                            "reference": "urn:uuid:c2f58cf5-b249-4400-a2ac-b0020c3a9bbe"
                        }
                    }
                ]
            }
        },
        {
            "fullUrl": "urn:uuid:6791d5be-079e-45d0-8268-05da5383776b",
            "resource": {
                "resourceType": "Observation",
                "id": "6791d5be-079e-45d0-8268-05da5383776b",
                "meta": {
                    "profile": [
                        "https://fhir.hl7.org.uk/STU3/StructureDefinition/CareConnect-Observation-1"
                    ]
                },
                "status": "unknown",
                "code": {
                    "coding": [
                        {
                            "system": "http://read.info/readv2",
                            "code": "423.."
                        }
                    ]
                },
                "subject": {
                    "reference": "urn:uuid:ce98248a-c7a3-473e-8660-efc482a3d480"
                },
                "performer": [
                    {
                        "reference": "urn:uuid:a5e90a9f-6482-4081-970f-ca07d3412f8f"
                    },
                    {
                        "reference": "urn:uuid:171f7ee4-6bb8-4805-8fbc-e3e96062d72b"
                    }
                ],
                "valueQuantity": {
                    "value": 16.7,
                    "unit": "g/dl"
                },
                "specimen": {
                    "reference": "urn:uuid:2ceef950-4697-4b3d-bbf3-092786b908c5"
                },
                "referenceRange": [
                    {
                        "low": {
                            "value": 13.3,
                            "unit": "g/dl"
                        },
                        "high": {
                            "value": 16.7,
                            "unit": "g/dl"
                        }
                    }
                ],
                "related": [
                    {
                        "target": {
                            "reference": "urn:uuid:6b2483a3-d8f7-4017-b353-f0763d3b58a2"
                        }
                    }
                ]
            }
        },
        {
            "fullUrl": "urn:uuid:383da439-3f56-4567-94f8-4216b9f91aa5",
            "resource": {
                "resourceType": "Observation",
                "id": "383da439-3f56-4567-94f8-4216b9f91aa5",
                "meta": {
                    "profile": [
                        "https://fhir.hl7.org.uk/STU3/StructureDefinition/CareConnect-Observation-1"
                    ]
                },
                "status": "unknown",
                "code": {
                    "coding": [
                        {
                            "system": "http://read.info/readv2",
                            "code": "42H.."
                        }
                    ]
                },
                "subject": {
                    "reference": "urn:uuid:ce98248a-c7a3-473e-8660-efc482a3d480"
                },
                "performer": [
                    {
                        "reference": "urn:uuid:a5e90a9f-6482-4081-970f-ca07d3412f8f"
                    },
                    {
                        "reference": "urn:uuid:171f7ee4-6bb8-4805-8fbc-e3e96062d72b"
                    }
                ],
                "valueQuantity": {
                    "value": 5.5,
                    "unit": "X 10-9/l"
                },
                "specimen": {
                    "reference": "urn:uuid:2ceef950-4697-4b3d-bbf3-092786b908c5"
                },
                "referenceRange": [
                    {
                        "low": {
                            "value": 3.7,
                            "unit": "X 10-9/l"
                        },
                        "high": {
                            "value": 9.5,
                            "unit": "X 10-9/l"
                        }
                    }
                ],
                "related": [
                    {
                        "target": {
                            "reference": "urn:uuid:6b2483a3-d8f7-4017-b353-f0763d3b58a2"
                        }
                    }
                ]
            }
        },
        {
            "fullUrl": "urn:uuid:18ccea40-750b-4a58-bad2-292d4212c4c0",
            "resource": {
                "resourceType": "Observation",
                "id": "18ccea40-750b-4a58-bad2-292d4212c4c0",
                "meta": {
                    "profile": [
                        "https://fhir.hl7.org.uk/STU3/StructureDefinition/CareConnect-Observation-1"
                    ]
                },
                "status": "unknown",
                "code": {
                    "coding": [
                        {
                            "system": "http://read.info/readv2",
                            "code": "42P.."
                        }
                    ]
                },
                "subject": {
                    "reference": "urn:uuid:ce98248a-c7a3-473e-8660-efc482a3d480"
                },
                "performer": [
                    {
                        "reference": "urn:uuid:a5e90a9f-6482-4081-970f-ca07d3412f8f"
                    },
                    {
                        "reference": "urn:uuid:171f7ee4-6bb8-4805-8fbc-e3e96062d72b"
                    }
                ],
                "valueQuantity": {
                    "value": 178,
                    "unit": "X 10-9/l"
                },
                "specimen": {
                    "reference": "urn:uuid:2ceef950-4697-4b3d-bbf3-092786b908c5"
                },
                "referenceRange": [
                    {
                        "low": {
                            "value": 150,
                            "unit": "X 10-9/l"
                        },
                        "high": {
                            "value": 400,
                            "unit": "X 10-9/l"
                        }
                    }
                ],
                "related": [
                    {
                        "target": {
                            "reference": "urn:uuid:6b2483a3-d8f7-4017-b353-f0763d3b58a2"
                        }
                    }
                ]
            }
        },
        {
            "fullUrl": "urn:uuid:5cd3fc99-f6b3-4f7d-8e64-272f53b1793e",
            "resource": {
                "resourceType": "Observation",
                "id": "5cd3fc99-f6b3-4f7d-8e64-272f53b1793e",
                "meta": {
                    "profile": [
                        "https://fhir.hl7.org.uk/STU3/StructureDefinition/CareConnect-Observation-1"
                    ]
                },
                "status": "unknown",
                "code": {
                    "coding": [
                        {
                            "system": "http://read.info/readv2",
                            "code": "426.."
                        }
                    ]
                },
                "subject": {
                    "reference": "urn:uuid:ce98248a-c7a3-473e-8660-efc482a3d480"
                },
                "performer": [
                    {
                        "reference": "urn:uuid:a5e90a9f-6482-4081-970f-ca07d3412f8f"
                    },
                    {
                        "reference": "urn:uuid:171f7ee4-6bb8-4805-8fbc-e3e96062d72b"
                    }
                ],
                "valueQuantity": {
                    "value": 5.64,
                    "unit": "X 10-12/l"
                },
                "specimen": {
                    "reference": "urn:uuid:2ceef950-4697-4b3d-bbf3-092786b908c5"
                },
                "referenceRange": [
                    {
                        "low": {
                            "value": 4.3,
                            "unit": "X 10-12/l"
                        },
                        "high": {
                            "value": 5.7,
                            "unit": "X 10-12/l"
                        }
                    }
                ],
                "related": [
                    {
                        "target": {
                            "reference": "urn:uuid:6b2483a3-d8f7-4017-b353-f0763d3b58a2"
                        }
                    }
                ]
            }
        },
        {
            "fullUrl": "urn:uuid:9aee04a8-0867-4135-8128-9eb2b8bca936",
            "resource": {
                "resourceType": "Observation",
                "id": "9aee04a8-0867-4135-8128-9eb2b8bca936",
                "meta": {
                    "profile": [
                        "https://fhir.hl7.org.uk/STU3/StructureDefinition/CareConnect-Observation-1"
                    ]
                },
                "status": "unknown",
                "code": {
                    "coding": [
                        {
                            "system": "http://read.info/readv2",
                            "code": "4258."
                        }
                    ]
                },
                "subject": {
                    "reference": "urn:uuid:ce98248a-c7a3-473e-8660-efc482a3d480"
                },
                "performer": [
                    {
                        "reference": "urn:uuid:a5e90a9f-6482-4081-970f-ca07d3412f8f"
                    },
                    {
                        "reference": "urn:uuid:171f7ee4-6bb8-4805-8fbc-e3e96062d72b"
                    }
                ],
                "valueQuantity": {
                    "value": 0.49,
                    "unit": "l/l"
                },
                "specimen": {
                    "reference": "urn:uuid:2ceef950-4697-4b3d-bbf3-092786b908c5"
                },
                "referenceRange": [
                    {
                        "low": {
                            "value": 0.39,
                            "unit": "l/l"
                        },
                        "high": {
                            "value": 0.50,
                            "unit": "l/l"
                        }
                    }
                ],
                "related": [
                    {
                        "target": {
                            "reference": "urn:uuid:6b2483a3-d8f7-4017-b353-f0763d3b58a2"
                        }
                    }
                ]
            }
        },
        {
            "fullUrl": "urn:uuid:c01771a9-9ce4-457d-992c-13380a43ec1d",
            "resource": {
                "resourceType": "Observation",
                "id": "c01771a9-9ce4-457d-992c-13380a43ec1d",
                "meta": {
                    "profile": [
                        "https://fhir.hl7.org.uk/STU3/StructureDefinition/CareConnect-Observation-1"
                    ]
                },
                "status": "unknown",
                "code": {
                    "coding": [
                        {
                            "system": "http://read.info/readv2",
                            "code": "42A.."
                        }
                    ]
                },
                "subject": {
                    "reference": "urn:uuid:ce98248a-c7a3-473e-8660-efc482a3d480"
                },
                "performer": [
                    {
                        "reference": "urn:uuid:a5e90a9f-6482-4081-970f-ca07d3412f8f"
                    },
                    {
                        "reference": "urn:uuid:171f7ee4-6bb8-4805-8fbc-e3e96062d72b"
                    }
                ],
                "valueQuantity": {
                    "value": 86.8,
                    "unit": "f/l"
                },
                "specimen": {
                    "reference": "urn:uuid:2ceef950-4697-4b3d-bbf3-092786b908c5"
                },
                "referenceRange": [
                    {
                        "low": {
                            "value": 77,
                            "unit": "f/l"
                        },
                        "high": {
                            "value": 98,
                            "unit": "f/l"
                        }
                    }
                ],
                "related": [
                    {
                        "target": {
                            "reference": "urn:uuid:6b2483a3-d8f7-4017-b353-f0763d3b58a2"
                        }
                    }
                ]
            }
        },
        {
            "fullUrl": "urn:uuid:82638fb4-0b9a-483a-8163-9527baf8f35d",
            "resource": {
                "resourceType": "Observation",
                "id": "82638fb4-0b9a-483a-8163-9527baf8f35d",
                "meta": {
                    "profile": [
                        "https://fhir.hl7.org.uk/STU3/StructureDefinition/CareConnect-Observation-1"
                    ]
                },
                "status": "unknown",
                "code": {
                    "coding": [
                        {
                            "system": "http://read.info/readv2",
                            "code": "428.."
                        }
                    ]
                },
                "subject": {
                    "reference": "urn:uuid:ce98248a-c7a3-473e-8660-efc482a3d480"
                },
                "performer": [
                    {
                        "reference": "urn:uuid:a5e90a9f-6482-4081-970f-ca07d3412f8f"
                    },
                    {
                        "reference": "urn:uuid:171f7ee4-6bb8-4805-8fbc-e3e96062d72b"
                    }
                ],
                "valueQuantity": {
                    "value": 29.6,
                    "unit": "pg"
                },
                "specimen": {
                    "reference": "urn:uuid:2ceef950-4697-4b3d-bbf3-092786b908c5"
                },
                "referenceRange": [
                    {
                        "low": {
                            "value": 27.3,
                            "unit": "pg"
                        },
                        "high": {
                            "value": 32.6,
                            "unit": "pg"
                        }
                    }
                ],
                "related": [
                    {
                        "target": {
                            "reference": "urn:uuid:6b2483a3-d8f7-4017-b353-f0763d3b58a2"
                        }
                    }
                ]
            }
        },
        {
            "fullUrl": "urn:uuid:8f6fcdb2-76b6-4954-8e8a-933aa03ad7da",
            "resource": {
                "resourceType": "Observation",
                "id": "8f6fcdb2-76b6-4954-8e8a-933aa03ad7da",
                "meta": {
                    "profile": [
                        "https://fhir.hl7.org.uk/STU3/StructureDefinition/CareConnect-Observation-1"
                    ]
                },
                "status": "unknown",
                "code": {
                    "coding": [
                        {
                            "system": "http://read.info/readv2",
                            "code": "429.."
                        }
                    ]
                },
                "subject": {
                    "reference": "urn:uuid:ce98248a-c7a3-473e-8660-efc482a3d480"
                },
                "performer": [
                    {
                        "reference": "urn:uuid:a5e90a9f-6482-4081-970f-ca07d3412f8f"
                    },
                    {
                        "reference": "urn:uuid:171f7ee4-6bb8-4805-8fbc-e3e96062d72b"
                    }
                ],
                "valueQuantity": {
                    "value": 34.1,
                    "unit": "g/dl"
                },
                "specimen": {
                    "reference": "urn:uuid:2ceef950-4697-4b3d-bbf3-092786b908c5"
                },
                "referenceRange": [
                    {
                        "low": {
                            "value": 31.6,
                            "unit": "g/dl"
                        },
                        "high": {
                            "value": 34.9,
                            "unit": "g/dl"
                        }
                    }
                ],
                "related": [
                    {
                        "target": {
                            "reference": "urn:uuid:6b2483a3-d8f7-4017-b353-f0763d3b58a2"
                        }
                    }
                ]
            }
        },
        {
            "fullUrl": "urn:uuid:7b52dbd9-ffdb-4ccc-b438-14efa2a54e9b",
            "resource": {
                "resourceType": "Observation",
                "id": "7b52dbd9-ffdb-4ccc-b438-14efa2a54e9b",
                "meta": {
                    "profile": [
                        "https://fhir.hl7.org.uk/STU3/StructureDefinition/CareConnect-Observation-1"
                    ]
                },
                "status": "unknown",
                "code": {
                    "coding": [
                        {
                            "system": "http://read.info/readv2",
                            "code": "42J.."
                        }
                    ]
                },
                "subject": {
                    "reference": "urn:uuid:ce98248a-c7a3-473e-8660-efc482a3d480"
                },
                "performer": [
                    {
                        "reference": "urn:uuid:a5e90a9f-6482-4081-970f-ca07d3412f8f"
                    },
                    {
                        "reference": "urn:uuid:171f7ee4-6bb8-4805-8fbc-e3e96062d72b"
                    }
                ],
                "valueQuantity": {
                    "value": 3.66,
                    "unit": "X 10-9/l"
                },
                "comment": "66.3%",
                "specimen": {
                    "reference": "urn:uuid:2ceef950-4697-4b3d-bbf3-092786b908c5"
                },
                "referenceRange": [
                    {
                        "low": {
                            "value": 1.7,
                            "unit": "X 10-9/l"
                        },
                        "high": {
                            "value": 7.5,
                            "unit": "X 10-9/l"
                        }
                    }
                ],
                "related": [
                    {
                        "target": {
                            "reference": "urn:uuid:6b2483a3-d8f7-4017-b353-f0763d3b58a2"
                        }
                    }
                ]
            }
        },
        {
            "fullUrl": "urn:uuid:4d8373b4-58cf-4ac2-b305-0c693ad9db1d",
            "resource": {
                "resourceType": "Observation",
                "id": "4d8373b4-58cf-4ac2-b305-0c693ad9db1d",
                "meta": {
                    "profile": [
                        "https://fhir.hl7.org.uk/STU3/StructureDefinition/CareConnect-Observation-1"
                    ]
                },
                "status": "unknown",
                "code": {
                    "coding": [
                        {
                            "system": "http://read.info/readv2",
                            "code": "42N.."
                        }
                    ]
                },
                "subject": {
                    "reference": "urn:uuid:ce98248a-c7a3-473e-8660-efc482a3d480"
                },
                "performer": [
                    {
                        "reference": "urn:uuid:a5e90a9f-6482-4081-970f-ca07d3412f8f"
                    },
                    {
                        "reference": "urn:uuid:171f7ee4-6bb8-4805-8fbc-e3e96062d72b"
                    }
                ],
                "valueQuantity": {
                    "value": 0.25,
                    "unit": "X 10-9/l"
                },
                "comment": "4.5%",
                "specimen": {
                    "reference": "urn:uuid:2ceef950-4697-4b3d-bbf3-092786b908c5"
                },
                "referenceRange": [
                    {
                        "low": {
                            "value": 0.2,
                            "unit": "X 10-9/l"
                        },
                        "high": {
                            "value": 0.6,
                            "unit": "X 10-9/l"
                        }
                    }
                ],
                "related": [
                    {
                        "target": {
                            "reference": "urn:uuid:6b2483a3-d8f7-4017-b353-f0763d3b58a2"
                        }
                    }
                ]
            }
        },
        {
            "fullUrl": "urn:uuid:30c63c1b-09d4-41e7-85e2-71120806075c",
            "resource": {
                "resourceType": "Observation",
                "id": "30c63c1b-09d4-41e7-85e2-71120806075c",
                "meta": {
                    "profile": [
                        "https://fhir.hl7.org.uk/STU3/StructureDefinition/CareConnect-Observation-1"
                    ]
                },
                "status": "unknown",
                "code": {
                    "coding": [
                        {
                            "system": "http://read.info/readv2",
                            "code": "42K.."
                        }
                    ]
                },
                "subject": {
                    "reference": "urn:uuid:ce98248a-c7a3-473e-8660-efc482a3d480"
                },
                "performer": [
                    {
                        "reference": "urn:uuid:a5e90a9f-6482-4081-970f-ca07d3412f8f"
                    },
                    {
                        "reference": "urn:uuid:171f7ee4-6bb8-4805-8fbc-e3e96062d72b"
                    }
                ],
                "valueQuantity": {
                    "value": 0.08,
                    "unit": "X 10-9/l"
                },
                "interpretation": {
                    "text": "LO : Below low reference limit"
                },
                "comment": "1.5%",
                "specimen": {
                    "reference": "urn:uuid:2ceef950-4697-4b3d-bbf3-092786b908c5"
                },
                "referenceRange": [
                    {
                        "low": {
                            "value": 0.1,
                            "unit": "X 10-9/l"
                        },
                        "high": {
                            "value": 0.5,
                            "unit": "X 10-9/l"
                        }
                    }
                ],
                "related": [
                    {
                        "target": {
                            "reference": "urn:uuid:6b2483a3-d8f7-4017-b353-f0763d3b58a2"
                        }
                    }
                ]
            }
        },
        {
            "fullUrl": "urn:uuid:c2f58cf5-b249-4400-a2ac-b0020c3a9bbe",
            "resource": {
                "resourceType": "Observation",
                "id": "c2f58cf5-b249-4400-a2ac-b0020c3a9bbe",
                "meta": {
                    "profile": [
                        "https://fhir.hl7.org.uk/STU3/StructureDefinition/CareConnect-Observation-1"
                    ]
                },
                "status": "unknown",
                "code": {
                    "coding": [
                        {
                            "system": "http://read.info/readv2",
                            "code": "42L.."
                        }
                    ]
                },
                "subject": {
                    "reference": "urn:uuid:ce98248a-c7a3-473e-8660-efc482a3d480"
                },
                "performer": [
                    {
                        "reference": "urn:uuid:a5e90a9f-6482-4081-970f-ca07d3412f8f"
                    },
                    {
                        "reference": "urn:uuid:171f7ee4-6bb8-4805-8fbc-e3e96062d72b"
                    }
                ],
                "valueQuantity": {
                    "value": 0.04,
                    "unit": "X 10-9/l"
                },
                "comment": "0.7%",
                "specimen": {
                    "reference": "urn:uuid:2ceef950-4697-4b3d-bbf3-092786b908c5"
                },
                "referenceRange": [
                    {
                        "low": {
                            "value": 0.02,
                            "unit": "X 10-9/l"
                        },
                        "high": {
                            "value": 0.1,
                            "unit": "X 10-9/l"
                        }
                    }
                ],
                "related": [
                    {
                        "target": {
                            "reference": "urn:uuid:6b2483a3-d8f7-4017-b353-f0763d3b58a2"
                        }
                    }
                ]
            }
        }
    ]
}