{
  "resourceType": "Bundle",
  "id": "5a1ac3f0-7cfb-4845-b4db-f8fd0ce40691",
  "meta": {
    "lastUpdated": "2021-02-24T14:18:27.244+00:00",
    "profile": [
      "https://fhir.nhs.uk/STU3/StructureDefinition/ITK-Message-Bundle-1"
    ]
  },
  "identifier": {
    "system": "https://tools.ietf.org/html/rfc4122",
    "value": "524d0910-dd42-43c8-998f-f94a0de2fe2c"
  },
  "type": "message",
  "entry": [
    {
      "fullUrl": "urn:uuid:88fbfba3-b3f1-44bb-8e1d-f03d34412142",
      "resource": {
        "resourceType": "Patient",
        "id": "8b3a4995-940e-4d59-b13e-05b92780d908",
        "identifier": [{
          "id": "C930718"
        }],
        "name": [
          {
            "family": "BLESSED",
            "given": [
              "BRIAN"
            ]
          }
        ],
        "gender": "male",
        "birthDate": "1949-06-09",
        "address": [
          {
            "line": [
              "THE WHITE HOUSE",
              "LONDON"
            ]
          }
        ]
      }
    },
    {
      "fullUrl": "urn:uuid:3cf4db7d-f1ec-4120-a1e2-89b793c0b69e",
      "resource": {
        "resourceType": "Practitioner",
        "id": "3cf4db7d-f1ec-4120-a1e2-89b793c0b69e",
        "identifier": [
          {
            "system": "https://fhir.nhs.uk/Id/sds-user-id",
            "value": "G9999999"
          }
        ],
        "name": [
          {
            "text": "DR A DOCTOR"
          }
        ]
      }
    },
    {
      "fullUrl": "urn:uuid:d10e0acd-5dd7-4622-982f-49bfb5f3dbeb",
      "resource": {
        "resourceType": "Organization",
        "id": "d10e0acd-5dd7-4622-982f-49bfb5f3dbeb",
        "identifier": [
          {
            "system": "https://fhir.nhs.uk/Id/ods-organization-code",
            "value": "L99999"
          }
        ]
      }
    },
    {
      "fullUrl": "urn:uuid:8d2a0213-5ec0-4ff7-8822-230864119bbd",
      "resource": {
        "resourceType": "Organization",
        "id": "8d2a0213-5ec0-4ff7-8822-230864119bbd",
        "identifier": [
          {
            "system": "https://fhir.nhs.uk/Id/ods-organization-code",
            "value": "REF00"
          }
        ],
        "type": [
          {
            "coding": [
              {
                "code": "dept",
                "display": "RCHT CLIN IMG"
              }
            ]
          }
        ]
      }
    },
    {
      "fullUrl": "urn:uuid:ca45b44b-1640-4879-a8b6-d17021cfbaab",
      "resource": {
        "resourceType": "DiagnosticReport",
        "id": "ca45b44b-1640-4879-a8b6-d17021cfbaab",
        "identifier": [
          {
            "value": "468158/1"
          }
        ],
        "status": "unknown",
        "code": {
          "coding": [{
            "system": "http://snomed.info/sct",
            "code": "721981007",
            "display": "Diagnostic studies report"
          }]
        },
        "subject": {
          "reference": "urn:uuid:8b3a4995-940e-4d59-b13e-05b92780d908"
        },
        "issued": "2007-03-27T12:20:00.000+01:00",
        "performer": [
          {
            "actor": {
              "reference": "urn:uuid:8d2a0213-5ec0-4ff7-8822-230864119bbd"
            }
          }
        ],
        "specimen": [
          {
            "reference": "urn:uuid:d611d5b2-3870-4121-b3ef-3969aa46952a"
          }
        ],
        "result": [
          {
            "reference": "urn:uuid:f3c37c38-619d-4936-b726-5cbf37367b16"
          }
        ]
      }
    },
    {
      "fullUrl": "urn:uuid:d611d5b2-3870-4121-b3ef-3969aa46952a",
      "resource": {
        "resourceType": "Specimen",
        "id": "d611d5b2-3870-4121-b3ef-3969aa46952a",
        "accessionIdentifier": {
          "system": "http://lab.acme.org/specimens/2011",
          "value": "07053229/XR Chest"
        },
        "type": {
          "coding": [
            {
              "system": "902",
              "code": "T016"
            }
          ]
        },
        "subject": {
          "reference": "urn:uuid:8b3a4995-940e-4d59-b13e-05b92780d908"
        },
        "receivedTime": "2007-03-27T10:44:00+01:00",
        "collection": {
          "collectedDateTime": "2007-03-27T10:44:00+01:00"
        }
      }
    },
    {
      "fullUrl": "urn:uuid:f3c37c38-619d-4936-b726-5cbf37367b16",
      "resource": {
        "resourceType": "Observation",
        "id": "f3c37c38-619d-4936-b726-5cbf37367b16",
        "status": "unknown",
        "code": {
          "coding": [
            {
              "display": "IMAGING XR Chest"
            }
          ]
        },
        "comment": "No lung or mediastinal lesion is seen.\nReporter: Dr E E Scovell",
        "subject": {
          "reference": "urn:uuid:8b3a4995-940e-4d59-b13e-05b92780d908"
        },
        "performer": [
          {
            "reference": "urn:uuid:8d2a0213-5ec0-4ff7-8822-230864119bbd"
          }
        ],
        "specimen": {
          "reference": "urn:uuid:d611d5b2-3870-4121-b3ef-3969aa46952a"
        }
      }
    }
  ]
}