{
    "resourceType": "Bundle",
    "id": "1c6120cc-4eac-4c4b-a12c-d3c1b39d900b",
    "meta": {
        "lastUpdated": "2021-06-08T10:51:53.278+01:00",
        "profile": [
            "https://fhir.nhs.uk/STU3/StructureDefinition/ITK-Message-Bundle-1"
        ]
    },
    "identifier": {
        "system": "https://tools.ietf.org/html/rfc4122",
        "value": "f70e8ca2-fdde-45be-8446-a601f5d85096"
    },
    "type": "message",
    "entry": [
        {
            "fullUrl": "urn:uuid:9cd1fcdd-a9dc-415d-9e52-19c564fedcbe",
            "resource": {
                "resourceType": "MessageHeader",
                "id": "9cd1fcdd-a9dc-415d-9e52-19c564fedcbe",
                "meta": {
                    "profile": [
                        "https://fhir.nhs.uk/STU3/StructureDefinition/ITK-MessageHeader-2"
                    ]
                },
                "extension": [
                    {
                        "url": "https://fhir.nhs.uk/STU3/StructureDefinition/Extension-ITK-MessageHandling-2",
                        "extension": [
                            {
                                "url": "BusAckRequested",
                                "valueBoolean": true
                            },
                            {
                                "url": "InfAckRequested",
                                "valueBoolean": true
                            },
                            {
                                "url": "RecipientType",
                                "valueCoding": {
                                    "system": "https://fhir.nhs.uk/STU3/CodeSystem/ITK-RecipientType-1",
                                    "code": "FA",
                                    "display": "For Action"
                                }
                            },
                            {
                                "url": "SenderReference",
                                "valueString": "None"
                            },
                            {
                                "url": "LocalExtension",
                                "valueString": "None"
                            }
                        ]
                    }
                ],
                "event": {
                    "system": "https://fhir.nhs.uk/STU3/CodeSystem/ITK-MessageEvent-2",
                    "code": "ITK012M",
                    "display": "ITK National Pathology"
                },
                "receiver": {
                    "reference": "urn:uuid:6a9bf572-e4f4-4e98-ac21-aec7aefdaf8f"
                },
                "sender": {
                    "reference": "urn:uuid:617c3dc6-84ca-4e67-bd35-498b11f5b52b"
                },
                "timestamp": "2007-03-27T16:11:00.000+01:00",
                "source": {
                    "endpoint": "lab_results_mailbox"
                },
                "responsible": {
                    "reference": "urn:uuid:617c3dc6-84ca-4e67-bd35-498b11f5b52b"
                },
                "focus": [
                    {
                        "reference": "urn:uuid:f9297a67-8c07-4941-b9a0-5efe349d0700"
                    }
                ]
            }
        },
        {
            "fullUrl": "urn:uuid:b64b935d-5785-4413-8722-93fed45fdc80",
            "resource": {
                "resourceType": "Patient",
                "id": "b64b935d-5785-4413-8722-93fed45fdc80",
                "meta": {
                    "profile": [
                        "https://fhir.hl7.org.uk/STU3/StructureDefinition/CareConnect-Patient-1"
                    ]
                },
                "identifier": [
                    {
                        "id": "C930718"
                    }
                ],
                "name": [
                    {
                        "use": "official",
                        "family": "BLESSED",
                        "given": [
                            "BRIAN"
                        ]
                    }
                ],
                "gender": "male",
                "birthDate": "1949-06-09",
                "address": [
                    {
                        "line": [
                            "THE WHITE HOUSE",
                            "LONDON"
                        ]
                    }
                ]
            }
        },
        {
            "fullUrl": "urn:uuid:424ac891-4754-4b8c-afea-71e0d599308e",
            "resource": {
                "resourceType": "Practitioner",
                "id": "424ac891-4754-4b8c-afea-71e0d599308e",
                "meta": {
                    "profile": [
                        "https://fhir.hl7.org.uk/STU3/StructureDefinition/CareConnect-Practitioner-1"
                    ]
                },
                "identifier": [
                    {
                        "value": "G9999999"
                    }
                ],
                "name": [
                    {
                        "text": "DR A DOCTOR"
                    }
                ]
            }
        },
        {
            "fullUrl": "urn:uuid:6a9bf572-e4f4-4e98-ac21-aec7aefdaf8f",
            "resource": {
                "resourceType": "Organization",
                "id": "6a9bf572-e4f4-4e98-ac21-aec7aefdaf8f",
                "meta": {
                    "profile": [
                        "https://fhir.hl7.org.uk/STU3/StructureDefinition/CareConnect-Organization-1"
                    ]
                },
                "identifier": [
                    {
                        "system": "https://fhir.nhs.uk/Id/ods-organization-code",
                        "value": "L99999"
                    }
                ]
            }
        },
        {
            "fullUrl": "urn:uuid:55f66b85-a61e-4df8-8106-945788fe7b12",
            "resource": {
                "resourceType": "Practitioner",
                "id": "55f66b85-a61e-4df8-8106-945788fe7b12",
                "meta": {
                    "profile": [
                        "https://fhir.hl7.org.uk/STU3/StructureDefinition/CareConnect-Practitioner-1"
                    ]
                }
            }
        },
        {
            "fullUrl": "urn:uuid:617c3dc6-84ca-4e67-bd35-498b11f5b52b",
            "resource": {
                "resourceType": "Organization",
                "id": "617c3dc6-84ca-4e67-bd35-498b11f5b52b",
                "meta": {
                    "profile": [
                        "https://fhir.hl7.org.uk/STU3/StructureDefinition/CareConnect-Organization-1"
                    ]
                },
                "identifier": [
                    {
                        "system": "https://fhir.nhs.uk/Id/ods-organization-code",
                        "value": "REF00"
                    }
                ],
                "type": [
                    {
                        "coding": [
                            {
                                "code": "dept",
                                "display": "RCHT CLIN IMG"
                            }
                        ]
                    }
                ]
            }
        },
        {
            "fullUrl": "urn:uuid:8325f8d6-124e-493b-8e37-8663cbc2783e",
            "resource": {
                "resourceType": "ProcedureRequest",
                "id": "8325f8d6-124e-493b-8e37-8663cbc2783e",
                "meta": {
                    "profile": [
                        "https://fhir.hl7.org.uk/STU3/StructureDefinition/CareConnect-ProcedureRequest-1"
                    ]
                },
                "status": "active",
                "intent": "order",
                "code": {
                    "coding": [
                        {
                            "system": "http://snomed.info/sct",
                            "code": "15220000",
                            "display": "Laboratory test (procedure)"
                        }
                    ]
                },
                "subject": {
                    "reference": "urn:uuid:b64b935d-5785-4413-8722-93fed45fdc80"
                },
                "requester": {
                    "agent": {
                        "reference": "urn:uuid:424ac891-4754-4b8c-afea-71e0d599308e"
                    },
                    "onBehalfOf": {
                        "reference": "urn:uuid:6a9bf572-e4f4-4e98-ac21-aec7aefdaf8f"
                    }
                },
                "performer": {
                    "reference": "urn:uuid:55f66b85-a61e-4df8-8106-945788fe7b12"
                }
            }
        },
        {
            "fullUrl": "urn:uuid:f9297a67-8c07-4941-b9a0-5efe349d0700",
            "resource": {
                "resourceType": "DiagnosticReport",
                "id": "f9297a67-8c07-4941-b9a0-5efe349d0700",
                "meta": {
                    "profile": [
                        "https://fhir.hl7.org.uk/STU3/StructureDefinition/CareConnect-DiagnosticReport-1"
                    ]
                },
                "identifier": [
                    {
                        "system": "https://tools.ietf.org/html/rfc4122",
                        "value": "468158/1"
                    }
                ],
                "basedOn": [
                    {
                        "reference": "urn:uuid:8325f8d6-124e-493b-8e37-8663cbc2783e"
                    }
                ],
                "status": "unknown",
                "code": {
                    "coding": [
                        {
                            "system": "http://snomed.info/sct",
                            "code": "721981007",
                            "display": "Diagnostic studies report"
                        }
                    ]
                },
                "subject": {
                    "reference": "urn:uuid:b64b935d-5785-4413-8722-93fed45fdc80"
                },
                "issued": "2007-03-27T13:20:00.000+01:00",
                "performer": [
                    {
                        "actor": {
                            "reference": "urn:uuid:617c3dc6-84ca-4e67-bd35-498b11f5b52b"
                        }
                    },
                    {
                        "actor": {
                            "reference": "urn:uuid:55f66b85-a61e-4df8-8106-945788fe7b12"
                        }
                    }
                ],
                "specimen": [
                    {
                        "reference": "urn:uuid:ea5d5861-bf09-479b-86fd-2129810e7f25"
                    }
                ],
                "result": [
                    {
                        "reference": "urn:uuid:5c2163dd-7321-42e8-a59a-a3610bea0be2"
                    }
                ]
            }
        },
        {
            "fullUrl": "urn:uuid:ea5d5861-bf09-479b-86fd-2129810e7f25",
            "resource": {
                "resourceType": "Specimen",
                "id": "ea5d5861-bf09-479b-86fd-2129810e7f25",
                "meta": {
                    "profile": [
                        "https://fhir.hl7.org.uk/STU3/StructureDefinition/CareConnect-Specimen-1"
                    ]
                },
                "accessionIdentifier": {
                    "value": "07053229/XR Chest"
                },
                "type": {
                    "coding": [
                        {
                            "code": "T016"
                        }
                    ]
                },
                "subject": {
                    "reference": "urn:uuid:b64b935d-5785-4413-8722-93fed45fdc80"
                },
                "receivedTime": "2007-03-27T10:44:00+01:00",
                "collection": {
                    "collectedDateTime": "2007-03-27T10:44:00+01:00"
                }
            }
        },
        {
            "fullUrl": "urn:uuid:5c2163dd-7321-42e8-a59a-a3610bea0be2",
            "resource": {
                "resourceType": "Observation",
                "id": "5c2163dd-7321-42e8-a59a-a3610bea0be2",
                "meta": {
                    "profile": [
                        "https://fhir.hl7.org.uk/STU3/StructureDefinition/CareConnect-Observation-1"
                    ]
                },
                "status": "unknown",
                "code": {
                    "coding": [
                        {
                            "display": "IMAGING XR Chest"
                        }
                    ]
                },
                "subject": {
                    "reference": "urn:uuid:b64b935d-5785-4413-8722-93fed45fdc80"
                },
                "performer": [
                    {
                        "reference": "urn:uuid:617c3dc6-84ca-4e67-bd35-498b11f5b52b"
                    },
                    {
                        "reference": "urn:uuid:55f66b85-a61e-4df8-8106-945788fe7b12"
                    }
                ],
                "comment": "No lung or mediastinal lesion is seen.\nReporter: Dr E E Scovell",
                "specimen": {
                    "reference": "urn:uuid:ea5d5861-bf09-479b-86fd-2129810e7f25"
                }
            }
        }
    ]
}