{
    "resourceType": "Bundle",
    "id": "873bcf60-788b-405c-a214-9d37540c5317",
    "meta": {
        "lastUpdated": "2021-06-07T12:29:10.866+01:00",
        "profile": [ "https://fhir.nhs.uk/STU3/StructureDefinition/ITK-Message-Bundle-1" ]
    },
    "identifier": {
        "system": "https://tools.ietf.org/html/rfc4122",
        "value": "fb1736b8-1fc8-4518-ad35-c716b6b7e2e5"
    },
    "type": "message",
    "entry": [ {
        "fullUrl": "urn:uuid:68b40238-19b1-4cb4-8e8b-4a8e7b98f53c",
        "resource": {
            "resourceType": "MessageHeader",
            "id": "68b40238-19b1-4cb4-8e8b-4a8e7b98f53c",
            "meta": {
                "profile": [ "https://fhir.nhs.uk/STU3/StructureDefinition/ITK-MessageHeader-2" ]
            },
            "extension": [ {
                "url": "https://fhir.nhs.uk/STU3/StructureDefinition/Extension-ITK-MessageHandling-2",
                "extension": [ {
                    "url": "BusAckRequested",
                    "valueBoolean": true
                }, {
                    "url": "InfAckRequested",
                    "valueBoolean": true
                }, {
                    "url": "RecipientType",
                    "valueCoding": {
                        "system": "https://fhir.nhs.uk/STU3/CodeSystem/ITK-RecipientType-1",
                        "code": "FA",
                        "display": "For Action"
                    }
                }, {
                    "url": "SenderReference",
                    "valueString": "None"
                }, {
                    "url": "LocalExtension",
                    "valueString": "None"
                } ]
            } ],
            "event": {
                "system": "https://fhir.nhs.uk/STU3/CodeSystem/ITK-MessageEvent-2",
                "code": "ITK012M",
                "display": "ITK National Pathology"
            },
            "receiver": {
                "reference": "urn:uuid:606ab29d-2b08-4350-9419-5dca4f33c4c6"
            },
            "sender": {
                "reference": "urn:uuid:05731511-9adb-429f-82d3-06e96e820360"
            },
            "timestamp": "2007-03-27T16:11:00.000+01:00",
            "source": {
                "endpoint": "lab_results_mailbox"
            },
            "responsible": {
                "reference": "urn:uuid:05731511-9adb-429f-82d3-06e96e820360"
            },
            "focus": [ {
                "reference": "urn:uuid:3b05314f-eb86-41ee-9b7d-d00e3b461e07"
            } ]
        }
    }, {
        "fullUrl": "urn:uuid:cdb3a693-b5e5-4744-9a18-e7ed594e30db",
        "resource": {
            "resourceType": "Patient",
            "id": "cdb3a693-b5e5-4744-9a18-e7ed594e30db",
            "meta": {
                "profile": [ "https://fhir.hl7.org.uk/STU3/StructureDefinition/CareConnect-Patient-1" ]
            },
            "identifier": [ {
                "id": "C905711"
            } ],
            "name": [ {
                "use": "official",
                "family": "PITSTOP",
                "given": [ "PENELOPE", "JANE" ]
            } ],
            "gender": "female",
            "birthDate": "1950-02-15",
            "address": [ {
                "line": [ "HILLTOP FARM", "TRUMPTON" ]
            } ]
        }
    }, {
        "fullUrl": "urn:uuid:07f2cfdb-610f-4998-b24c-3897d1c6d70a",
        "resource": {
            "resourceType": "Practitioner",
            "id": "07f2cfdb-610f-4998-b24c-3897d1c6d70a",
            "meta": {
                "profile": [ "https://fhir.hl7.org.uk/STU3/StructureDefinition/CareConnect-Practitioner-1" ]
            },
            "identifier": [ {
                "value": "G9304284"
            } ],
            "name": [ {
                "text": "DR A DOCTOR"
            } ]
        }
    }, {
        "fullUrl": "urn:uuid:606ab29d-2b08-4350-9419-5dca4f33c4c6",
        "resource": {
            "resourceType": "Organization",
            "id": "606ab29d-2b08-4350-9419-5dca4f33c4c6",
            "meta": {
                "profile": [ "https://fhir.hl7.org.uk/STU3/StructureDefinition/CareConnect-Organization-1" ]
            },
            "identifier": [ {
                "system": "https://fhir.nhs.uk/Id/ods-organization-code",
                "value": "L99999"
            } ]
        }
    }, {
        "fullUrl": "urn:uuid:1c200790-85b8-4b91-85ee-15e3e28cb893",
        "resource": {
            "resourceType": "Practitioner",
            "id": "1c200790-85b8-4b91-85ee-15e3e28cb893",
            "meta": {
                "profile": [ "https://fhir.hl7.org.uk/STU3/StructureDefinition/CareConnect-Practitioner-1" ]
            }
        }
    }, {
        "fullUrl": "urn:uuid:05731511-9adb-429f-82d3-06e96e820360",
        "resource": {
            "resourceType": "Organization",
            "id": "05731511-9adb-429f-82d3-06e96e820360",
            "meta": {
                "profile": [ "https://fhir.hl7.org.uk/STU3/StructureDefinition/CareConnect-Organization-1" ]
            },
            "identifier": [ {
                "system": "https://fhir.nhs.uk/Id/ods-organization-code",
                "value": "REF00"
            } ],
            "type": [ {
                "coding": [ {
                    "code": "dept",
                    "display": "RCHT CLIN IMG"
                } ]
            } ]
        }
    }, {
        "fullUrl": "urn:uuid:08dd0964-ee57-4cc8-89d3-2ca302d7ceda",
        "resource": {
            "resourceType": "ProcedureRequest",
            "id": "08dd0964-ee57-4cc8-89d3-2ca302d7ceda",
            "meta": {
                "profile": [ "https://fhir.hl7.org.uk/STU3/StructureDefinition/CareConnect-ProcedureRequest-1" ]
            },
            "status": "active",
            "intent": "order",
            "code": {
                "coding": [ {
                    "system": "http://snomed.info/sct",
                    "code": "15220000",
                    "display": "Laboratory test (procedure)"
                } ]
            },
            "subject": {
                "reference": "urn:uuid:cdb3a693-b5e5-4744-9a18-e7ed594e30db"
            },
            "requester": {
                "agent": {
                    "reference": "urn:uuid:07f2cfdb-610f-4998-b24c-3897d1c6d70a"
                },
                "onBehalfOf": {
                    "reference": "urn:uuid:606ab29d-2b08-4350-9419-5dca4f33c4c6"
                }
            },
            "performer": {
                "reference": "urn:uuid:1c200790-85b8-4b91-85ee-15e3e28cb893"
            }
        }
    }, {
        "fullUrl": "urn:uuid:3b05314f-eb86-41ee-9b7d-d00e3b461e07",
        "resource": {
            "resourceType": "DiagnosticReport",
            "id": "3b05314f-eb86-41ee-9b7d-d00e3b461e07",
            "meta": {
                "profile": [ "https://fhir.hl7.org.uk/STU3/StructureDefinition/CareConnect-DiagnosticReport-1" ]
            },
            "identifier": [ {
                "system": "https://tools.ietf.org/html/rfc4122",
                "value": "468158/3"
            } ],
            "basedOn": [ {
                "reference": "urn:uuid:08dd0964-ee57-4cc8-89d3-2ca302d7ceda"
            } ],
            "status": "unknown",
            "code": {
                "coding": [ {
                    "system": "http://snomed.info/sct",
                    "code": "721981007",
                    "display": "Diagnostic studies report"
                } ]
            },
            "subject": {
                "reference": "urn:uuid:cdb3a693-b5e5-4744-9a18-e7ed594e30db"
            },
            "issued": "2007-03-27T13:13:00.000+01:00",
            "performer": [ {
                "actor": {
                    "reference": "urn:uuid:05731511-9adb-429f-82d3-06e96e820360"
                }
            }, {
                "actor": {
                    "reference": "urn:uuid:1c200790-85b8-4b91-85ee-15e3e28cb893"
                }
            } ],
            "specimen": [ {
                "reference": "urn:uuid:69c20de7-561d-4362-a63e-c131d63aa821"
            } ],
            "result": [ {
                "reference": "urn:uuid:3726826a-81a9-43a9-bb93-36a2583b2f80"
            } ]
        }
    }, {
        "fullUrl": "urn:uuid:69c20de7-561d-4362-a63e-c131d63aa821",
        "resource": {
            "resourceType": "Specimen",
            "id": "69c20de7-561d-4362-a63e-c131d63aa821",
            "meta": {
                "profile": [ "https://fhir.hl7.org.uk/STU3/StructureDefinition/CareConnect-Specimen-1" ]
            },
            "accessionIdentifier": {
                "value": "07052525/XR Chest"
            },
            "type": {
                "coding": [ {
                    "system": "http://snomed.info/sct",
                    "code": "T016"
                } ]
            },
            "subject": {
                "reference": "urn:uuid:cdb3a693-b5e5-4744-9a18-e7ed594e30db"
            },
            "receivedTime": "2007-03-26T12:37:00+01:00",
            "collection": {
                "collectedDateTime": "2007-03-26T12:37:00+01:00"
            }
        }
    }, {
        "fullUrl": "urn:uuid:3726826a-81a9-43a9-bb93-36a2583b2f80",
        "resource": {
            "resourceType": "Observation",
            "id": "3726826a-81a9-43a9-bb93-36a2583b2f80",
            "meta": {
                "profile": [ "https://fhir.hl7.org.uk/STU3/StructureDefinition/CareConnect-Observation-1" ]
            },
            "status": "unknown",
            "code": {
                "coding": [ {
                    "display": "IMAGING XR Chest"
                } ]
            },
            "subject": {
                "reference": "urn:uuid:cdb3a693-b5e5-4744-9a18-e7ed594e30db"
            },
            "performer": [ {
                "reference": "urn:uuid:05731511-9adb-429f-82d3-06e96e820360"
            }, {
                "reference": "urn:uuid:1c200790-85b8-4b91-85ee-15e3e28cb893"
            } ],
            "comment": "No lung or mediastinal lesion is seen.\nReporter: Dr E E SMITH",
            "specimen": {
                "reference": "urn:uuid:69c20de7-561d-4362-a63e-c131d63aa821"
            }
        }
    } ]
}