{
    "resourceType": "Bundle",
    "id": "b802499e-fef5-4396-953f-072196790090",
    "meta": {
        "lastUpdated": "2021-04-27T13:31:57.436+01:00",
        "profile": [
            "https://fhir.nhs.uk/STU3/StructureDefinition/ITK-Message-Bundle-1"
        ]
    },
    "identifier": {
        "system": "https://tools.ietf.org/html/rfc4122",
        "value": "faf43dac-d1ea-4b21-84b3-95440ee0da1a"
    },
    "type": "message",
    "entry": [
        {
            "fullUrl": "urn:uuid:df24f9de-e4a5-486e-b2f4-3c2492996762",
            "resource": {
                "resourceType": "MessageHeader",
                "id": "df24f9de-e4a5-486e-b2f4-3c2492996762",
                "meta": {
                    "profile": [
                        "https://fhir.nhs.uk/STU3/StructureDefinition/ITK-MessageHeader-2"
                    ]
                },
                "extension": [
                    {
                        "url": "https://fhir.nhs.uk/STU3/StructureDefinition/Extension-ITK-MessageHandling-2",
                        "extension": [
                            {
                                "url": "BusAckRequested",
                                "valueBoolean": true
                            },
                            {
                                "url": "InfAckRequested",
                                "valueBoolean": true
                            },
                            {
                                "url": "RecipientType",
                                "valueCoding": {
                                    "system": "https://fhir.nhs.uk/STU3/CodeSystem/ITK-RecipientType-1",
                                    "code": "FA",
                                    "display": "For Action"
                                }
                            },
                            {
                                "url": "SenderReference",
                                "valueString": "None"
                            },
                            {
                                "url": "LocalExtension",
                                "valueString": "None"
                            }
                        ]
                    }
                ],
                "event": {
                    "system": "https://fhir.nhs.uk/STU3/CodeSystem/ITK-MessageEvent-2",
                    "code": "ITK012M",
                    "display": "ITK National Pathology"
                },
                "receiver": {
                    "reference": "urn:uuid:8a7c1ade-8478-4c56-800c-4a330f8c1a2a"
                },
                "sender": {
                    "reference": "urn:uuid:377ea1ea-1281-40df-8fea-8568dea55dd6"
                },
                "timestamp": "2010-03-01T17:51:00.000+00:00",
                "source": {
                    "endpoint": "lab_results_mailbox"
                },
                "responsible": {
                    "reference": "urn:uuid:377ea1ea-1281-40df-8fea-8568dea55dd6"
                },
                "focus": [
                    {
                        "reference": "urn:uuid:7e59976f-a5a2-4872-86b2-589f32632059"
                    }
                ]
            }
        },
        {
            "fullUrl": "urn:uuid:94e8eba9-09e3-4823-b7a2-326ef06db1b1",
            "resource": {
                "resourceType": "Patient",
                "id": "94e8eba9-09e3-4823-b7a2-326ef06db1b1",
                "meta": {
                    "profile": [
                        "https://fhir.hl7.org.uk/STU3/StructureDefinition/CareConnect-Patient-1"
                    ]
                },
                "identifier": [
                    {
                        "id": "Z77553311"
                    }
                ],
                "name": [
                    {
                        "use": "official",
                        "family": "SPRINGATE",
                        "given": [
                            "SYDNEY"
                        ]
                    }
                ],
                "birthDate": "1962-11-01",
                "address": [
                    {
                        "line": [
                            "FLAT1",
                            "1 LUMBY",
                            "PUDSEY",
                            "LEEDS"
                        ],
                        "postalCode": "LS25 5PR"
                    }
                ]
            }
        },
        {
            "fullUrl": "urn:uuid:ffdba775-391b-4f6f-a8dc-c836127565a5",
            "resource": {
                "resourceType": "Practitioner",
                "id": "ffdba775-391b-4f6f-a8dc-c836127565a5",
                "meta": {
                    "profile": [
                        "https://fhir.hl7.org.uk/STU3/StructureDefinition/CareConnect-Practitioner-1"
                    ]
                },
                "identifier": [
                    {
                        "system": "https://fhir.nhs.uk/Id/sds-user-id",
                        "value": "G3380314"
                    }
                ],
                "name": [
                    {
                        "text": "SCOTT"
                    }
                ]
            }
        },
        {
            "fullUrl": "urn:uuid:8a7c1ade-8478-4c56-800c-4a330f8c1a2a",
            "resource": {
                "resourceType": "Organization",
                "id": "8a7c1ade-8478-4c56-800c-4a330f8c1a2a",
                "meta": {
                    "profile": [
                        "https://fhir.hl7.org.uk/STU3/StructureDefinition/CareConnect-Organization-1"
                    ]
                }
            }
        },
        {
            "fullUrl": "urn:uuid:5a56ca24-98b0-4ada-a341-2c3c0d2d250e",
            "resource": {
                "resourceType": "Practitioner",
                "id": "5a56ca24-98b0-4ada-a341-2c3c0d2d250e",
                "meta": {
                    "profile": [
                        "https://fhir.hl7.org.uk/STU3/StructureDefinition/CareConnect-Practitioner-1"
                    ]
                }
            }
        },
        {
            "fullUrl": "urn:uuid:377ea1ea-1281-40df-8fea-8568dea55dd6",
            "resource": {
                "resourceType": "Organization",
                "id": "377ea1ea-1281-40df-8fea-8568dea55dd6",
                "meta": {
                    "profile": [
                        "https://fhir.hl7.org.uk/STU3/StructureDefinition/CareConnect-Organization-1"
                    ]
                },
                "type": [
                    {
                        "coding": [
                            {
                                "code": "dept",
                                "display": "Haematology Dept."
                            }
                        ]
                    }
                ],
                "name": "ST JAMES'S UNIVERSITY HOSPITAL"
            }
        },
        {
            "fullUrl": "urn:uuid:f90a9dd4-f300-4c88-ac8a-2928c91fdd8c",
            "resource": {
                "resourceType": "ProcedureRequest",
                "id": "f90a9dd4-f300-4c88-ac8a-2928c91fdd8c",
                "meta": {
                    "profile": [
                        "https://fhir.hl7.org.uk/STU3/StructureDefinition/CareConnect-ProcedureRequest-1"
                    ]
                },
                "status": "unknown",
                "intent": "order",
                "code": {
                    "text": "unknown"
                },
                "subject": {
                    "reference": "urn:uuid:94e8eba9-09e3-4823-b7a2-326ef06db1b1"
                },
                "requester": {
                    "agent": {
                        "reference": "urn:uuid:ffdba775-391b-4f6f-a8dc-c836127565a5"
                    },
                    "onBehalfOf": {
                        "reference": "urn:uuid:8a7c1ade-8478-4c56-800c-4a330f8c1a2a"
                    }
                },
                "performer": {
                    "reference": "urn:uuid:5a56ca24-98b0-4ada-a341-2c3c0d2d250e"
                },
                "note": [
                    {
                        "text": "ON AZATHIOPRINE"
                    }
                ]
            }
        },
        {
            "fullUrl": "urn:uuid:7e59976f-a5a2-4872-86b2-589f32632059",
            "resource": {
                "resourceType": "DiagnosticReport",
                "id": "7e59976f-a5a2-4872-86b2-589f32632059",
                "meta": {
                    "profile": [
                        "https://fhir.hl7.org.uk/STU3/StructureDefinition/CareConnect-DiagnosticReport-1"
                    ]
                },
                "identifier": [
                    {
                        "system": "https://tools.ietf.org/html/rfc4122",
                        "value": "15/CH000041O/200010191704"
                    }
                ],
                "basedOn": [
                    {
                        "reference": "urn:uuid:f90a9dd4-f300-4c88-ac8a-2928c91fdd8c"
                    }
                ],
                "status": "unknown",
                "code": {
                    "coding": [
                        {
                            "system": "http://snomed.info/sct",
                            "code": "721981007",
                            "display": "Diagnostic studies report"
                        }
                    ]
                },
                "subject": {
                    "reference": "urn:uuid:94e8eba9-09e3-4823-b7a2-326ef06db1b1"
                },
                "issued": "2010-02-25T15:41:00.000+00:00",
                "performer": [
                    {
                        "actor": {
                            "reference": "urn:uuid:377ea1ea-1281-40df-8fea-8568dea55dd6"
                        }
                    },
                    {
                        "actor": {
                            "reference": "urn:uuid:5a56ca24-98b0-4ada-a341-2c3c0d2d250e"
                        }
                    }
                ],
                "specimen": [
                    {
                        "reference": "urn:uuid:65e11f16-fe18-4324-9095-d2df3b7db835"
                    }
                ],
                "result": [
                    {
                        "reference": "urn:uuid:3d156e00-42fd-4528-9f46-d9c7f678d683"
                    }
                ]
            }
        },
        {
            "fullUrl": "urn:uuid:65e11f16-fe18-4324-9095-d2df3b7db835",
            "resource": {
                "resourceType": "Specimen",
                "id": "65e11f16-fe18-4324-9095-d2df3b7db835",
                "meta": {
                    "profile": [
                        "https://fhir.hl7.org.uk/STU3/StructureDefinition/CareConnect-Specimen-1"
                    ]
                },
                "accessionIdentifier": {
                    "system": "http://lab.acme.org/specimens/2011",
                    "value": "CH000041OC"
                },
                "type": {
                    "coding": [
                        {
                            "system": "http://snomed.info/sct",
                            "display": "VENOUS BLOOD"
                        }
                    ]
                },
                "subject": {
                    "reference": "urn:uuid:94e8eba9-09e3-4823-b7a2-326ef06db1b1"
                },
                "collection": {
                    "collectedDateTime": "2010-02-23"
                }
            }
        },
        {
            "fullUrl": "urn:uuid:3d156e00-42fd-4528-9f46-d9c7f678d683",
            "resource": {
                "resourceType": "Observation",
                "id": "3d156e00-42fd-4528-9f46-d9c7f678d683",
                "meta": {
                    "profile": [
                        "https://fhir.hl7.org.uk/STU3/StructureDefinition/CareConnect-Observation-1"
                    ]
                },
                "status": "unknown",
                "code": {
                    "coding": [
                        {
                            "system": "http://read.info/readv2",
                            "code": "424..",
                            "display": "Full blood count - FBC"
                        }
                    ]
                },
                "subject": {
                    "reference": "urn:uuid:94e8eba9-09e3-4823-b7a2-326ef06db1b1"
                },
                "performer": [
                    {
                        "reference": "urn:uuid:377ea1ea-1281-40df-8fea-8568dea55dd6"
                    },
                    {
                        "reference": "urn:uuid:5a56ca24-98b0-4ada-a341-2c3c0d2d250e"
                    }
                ],
                "specimen": {
                    "reference": "urn:uuid:65e11f16-fe18-4324-9095-d2df3b7db835"
                },
                "related": [
                    {
                        "type": "has-member",
                        "target": {
                            "reference": "urn:uuid:76a60436-d708-4647-80a1-13fca9bddecc"
                        }
                    },
                    {
                        "type": "has-member",
                        "target": {
                            "reference": "urn:uuid:451e1717-28d2-4a8f-8b28-207ec47b6da6"
                        }
                    },
                    {
                        "type": "has-member",
                        "target": {
                            "reference": "urn:uuid:a0cececc-0ee9-4927-9cd7-afdf437c49c3"
                        }
                    },
                    {
                        "type": "has-member",
                        "target": {
                            "reference": "urn:uuid:4c974b9a-5633-4300-9cb9-71b95edba7f8"
                        }
                    },
                    {
                        "type": "has-member",
                        "target": {
                            "reference": "urn:uuid:e05c4069-bb45-4783-8152-b2b659049728"
                        }
                    },
                    {
                        "type": "has-member",
                        "target": {
                            "reference": "urn:uuid:7ff2e82c-ad5a-49a1-9ec7-e5105dbfa95b"
                        }
                    },
                    {
                        "type": "has-member",
                        "target": {
                            "reference": "urn:uuid:442bea08-a691-488c-ac66-a867b86c8172"
                        }
                    },
                    {
                        "type": "has-member",
                        "target": {
                            "reference": "urn:uuid:7411683f-2263-4e73-b52d-bc4d600f5491"
                        }
                    },
                    {
                        "type": "has-member",
                        "target": {
                            "reference": "urn:uuid:a6270179-8a48-4ad6-b6a5-21eff0c69c10"
                        }
                    },
                    {
                        "type": "has-member",
                        "target": {
                            "reference": "urn:uuid:489de767-a164-4a07-81eb-647079f448a9"
                        }
                    },
                    {
                        "type": "has-member",
                        "target": {
                            "reference": "urn:uuid:625cd481-9e4b-4342-a925-69c23683d533"
                        }
                    },
                    {
                        "type": "has-member",
                        "target": {
                            "reference": "urn:uuid:20fe3b54-ef0f-4866-8860-bc72d61932f1"
                        }
                    },
                    {
                        "type": "has-member",
                        "target": {
                            "reference": "urn:uuid:d2d45edb-0c61-44c0-8af0-2f755dd24576"
                        }
                    }
                ]
            }
        },
        {
            "fullUrl": "urn:uuid:76a60436-d708-4647-80a1-13fca9bddecc",
            "resource": {
                "resourceType": "Observation",
                "id": "76a60436-d708-4647-80a1-13fca9bddecc",
                "meta": {
                    "profile": [
                        "https://fhir.hl7.org.uk/STU3/StructureDefinition/CareConnect-Observation-1"
                    ]
                },
                "status": "unknown",
                "code": {
                    "coding": [
                        {
                            "system": "http://read.info/readv2",
                            "code": "42H..",
                            "display": "Total white cell count"
                        }
                    ]
                },
                "subject": {
                    "reference": "urn:uuid:94e8eba9-09e3-4823-b7a2-326ef06db1b1"
                },
                "performer": [
                    {
                        "reference": "urn:uuid:377ea1ea-1281-40df-8fea-8568dea55dd6"
                    },
                    {
                        "reference": "urn:uuid:5a56ca24-98b0-4ada-a341-2c3c0d2d250e"
                    }
                ],
                "valueQuantity": {
                    "value": 7.6,
                    "unit": "10*9/L"
                },
                "specimen": {
                    "reference": "urn:uuid:65e11f16-fe18-4324-9095-d2df3b7db835"
                },
                "referenceRange": [
                    {
                        "low": {
                            "value": 4.0
                        },
                        "high": {
                            "value": 11.0
                        }
                    }
                ],
                "related": [
                    {
                        "target": {
                            "reference": "urn:uuid:3d156e00-42fd-4528-9f46-d9c7f678d683"
                        }
                    }
                ]
            }
        },
        {
            "fullUrl": "urn:uuid:451e1717-28d2-4a8f-8b28-207ec47b6da6",
            "resource": {
                "resourceType": "Observation",
                "id": "451e1717-28d2-4a8f-8b28-207ec47b6da6",
                "meta": {
                    "profile": [
                        "https://fhir.hl7.org.uk/STU3/StructureDefinition/CareConnect-Observation-1"
                    ]
                },
                "status": "unknown",
                "code": {
                    "coding": [
                        {
                            "system": "http://read.info/readv2",
                            "code": "426..",
                            "display": "Red blood cell (RBC) count"
                        }
                    ]
                },
                "subject": {
                    "reference": "urn:uuid:94e8eba9-09e3-4823-b7a2-326ef06db1b1"
                },
                "performer": [
                    {
                        "reference": "urn:uuid:377ea1ea-1281-40df-8fea-8568dea55dd6"
                    },
                    {
                        "reference": "urn:uuid:5a56ca24-98b0-4ada-a341-2c3c0d2d250e"
                    }
                ],
                "valueQuantity": {
                    "value": 2.84,
                    "unit": "10*12/L"
                },
                "interpretation": {
                    "coding": [
                        {
                            "system": "http://hl7.org/fhir/v2/0078",
                            "code": "L",
                            "display": "Low"
                        }
                    ]
                },
                "specimen": {
                    "reference": "urn:uuid:65e11f16-fe18-4324-9095-d2df3b7db835"
                },
                "referenceRange": [
                    {
                        "low": {
                            "value": 3.8
                        },
                        "high": {
                            "value": 5.4
                        }
                    }
                ],
                "related": [
                    {
                        "target": {
                            "reference": "urn:uuid:3d156e00-42fd-4528-9f46-d9c7f678d683"
                        }
                    }
                ]
            }
        },
        {
            "fullUrl": "urn:uuid:a0cececc-0ee9-4927-9cd7-afdf437c49c3",
            "resource": {
                "resourceType": "Observation",
                "id": "a0cececc-0ee9-4927-9cd7-afdf437c49c3",
                "meta": {
                    "profile": [
                        "https://fhir.hl7.org.uk/STU3/StructureDefinition/CareConnect-Observation-1"
                    ]
                },
                "status": "unknown",
                "code": {
                    "coding": [
                        {
                            "system": "http://read.info/readv2",
                            "code": "423..",
                            "display": "Haemoglobin estimation"
                        }
                    ]
                },
                "subject": {
                    "reference": "urn:uuid:94e8eba9-09e3-4823-b7a2-326ef06db1b1"
                },
                "performer": [
                    {
                        "reference": "urn:uuid:377ea1ea-1281-40df-8fea-8568dea55dd6"
                    },
                    {
                        "reference": "urn:uuid:5a56ca24-98b0-4ada-a341-2c3c0d2d250e"
                    }
                ],
                "valueQuantity": {
                    "value": 11.0,
                    "unit": "g/dL"
                },
                "specimen": {
                    "reference": "urn:uuid:65e11f16-fe18-4324-9095-d2df3b7db835"
                },
                "referenceRange": [
                    {
                        "low": {
                            "value": 10.5
                        },
                        "high": {
                            "value": 15.0
                        }
                    }
                ],
                "related": [
                    {
                        "target": {
                            "reference": "urn:uuid:3d156e00-42fd-4528-9f46-d9c7f678d683"
                        }
                    }
                ]
            }
        },
        {
            "fullUrl": "urn:uuid:4c974b9a-5633-4300-9cb9-71b95edba7f8",
            "resource": {
                "resourceType": "Observation",
                "id": "4c974b9a-5633-4300-9cb9-71b95edba7f8",
                "meta": {
                    "profile": [
                        "https://fhir.hl7.org.uk/STU3/StructureDefinition/CareConnect-Observation-1"
                    ]
                },
                "status": "unknown",
                "code": {
                    "coding": [
                        {
                            "system": "http://read.info/readv2",
                            "code": "4258.",
                            "display": "Haematocrit"
                        }
                    ]
                },
                "subject": {
                    "reference": "urn:uuid:94e8eba9-09e3-4823-b7a2-326ef06db1b1"
                },
                "performer": [
                    {
                        "reference": "urn:uuid:377ea1ea-1281-40df-8fea-8568dea55dd6"
                    },
                    {
                        "reference": "urn:uuid:5a56ca24-98b0-4ada-a341-2c3c0d2d250e"
                    }
                ],
                "valueQuantity": {
                    "value": 0.315,
                    "unit": "%"
                },
                "interpretation": {
                    "coding": [
                        {
                            "system": "http://hl7.org/fhir/v2/0078",
                            "code": "L",
                            "display": "Low"
                        }
                    ]
                },
                "specimen": {
                    "reference": "urn:uuid:65e11f16-fe18-4324-9095-d2df3b7db835"
                },
                "referenceRange": [
                    {
                        "low": {
                            "value": 0.370
                        },
                        "high": {
                            "value": 0.470
                        }
                    }
                ],
                "related": [
                    {
                        "target": {
                            "reference": "urn:uuid:3d156e00-42fd-4528-9f46-d9c7f678d683"
                        }
                    }
                ]
            }
        },
        {
            "fullUrl": "urn:uuid:e05c4069-bb45-4783-8152-b2b659049728",
            "resource": {
                "resourceType": "Observation",
                "id": "e05c4069-bb45-4783-8152-b2b659049728",
                "meta": {
                    "profile": [
                        "https://fhir.hl7.org.uk/STU3/StructureDefinition/CareConnect-Observation-1"
                    ]
                },
                "status": "unknown",
                "code": {
                    "coding": [
                        {
                            "system": "http://read.info/readv2",
                            "code": "42A..",
                            "display": "Mean corpuscular volume (MCV)"
                        }
                    ]
                },
                "subject": {
                    "reference": "urn:uuid:94e8eba9-09e3-4823-b7a2-326ef06db1b1"
                },
                "performer": [
                    {
                        "reference": "urn:uuid:377ea1ea-1281-40df-8fea-8568dea55dd6"
                    },
                    {
                        "reference": "urn:uuid:5a56ca24-98b0-4ada-a341-2c3c0d2d250e"
                    }
                ],
                "valueQuantity": {
                    "value": 111.1,
                    "unit": "fL"
                },
                "interpretation": {
                    "coding": [
                        {
                            "system": "http://hl7.org/fhir/v2/0078",
                            "code": "H",
                            "display": "High"
                        }
                    ]
                },
                "specimen": {
                    "reference": "urn:uuid:65e11f16-fe18-4324-9095-d2df3b7db835"
                },
                "referenceRange": [
                    {
                        "low": {
                            "value": 76
                        },
                        "high": {
                            "value": 100
                        }
                    }
                ],
                "related": [
                    {
                        "target": {
                            "reference": "urn:uuid:3d156e00-42fd-4528-9f46-d9c7f678d683"
                        }
                    }
                ]
            }
        },
        {
            "fullUrl": "urn:uuid:7ff2e82c-ad5a-49a1-9ec7-e5105dbfa95b",
            "resource": {
                "resourceType": "Observation",
                "id": "7ff2e82c-ad5a-49a1-9ec7-e5105dbfa95b",
                "meta": {
                    "profile": [
                        "https://fhir.hl7.org.uk/STU3/StructureDefinition/CareConnect-Observation-1"
                    ]
                },
                "status": "unknown",
                "code": {
                    "coding": [
                        {
                            "system": "http://read.info/readv2",
                            "code": "428..",
                            "display": "Mean corpusc. haemoglobin(MCH)"
                        }
                    ]
                },
                "subject": {
                    "reference": "urn:uuid:94e8eba9-09e3-4823-b7a2-326ef06db1b1"
                },
                "performer": [
                    {
                        "reference": "urn:uuid:377ea1ea-1281-40df-8fea-8568dea55dd6"
                    },
                    {
                        "reference": "urn:uuid:5a56ca24-98b0-4ada-a341-2c3c0d2d250e"
                    }
                ],
                "valueQuantity": {
                    "value": 38.7,
                    "unit": "pg"
                },
                "interpretation": {
                    "coding": [
                        {
                            "system": "http://hl7.org/fhir/v2/0078",
                            "code": "H",
                            "display": "High"
                        }
                    ]
                },
                "specimen": {
                    "reference": "urn:uuid:65e11f16-fe18-4324-9095-d2df3b7db835"
                },
                "referenceRange": [
                    {
                        "low": {
                            "value": 26
                        },
                        "high": {
                            "value": 32
                        }
                    }
                ],
                "related": [
                    {
                        "target": {
                            "reference": "urn:uuid:3d156e00-42fd-4528-9f46-d9c7f678d683"
                        }
                    }
                ]
            }
        },
        {
            "fullUrl": "urn:uuid:442bea08-a691-488c-ac66-a867b86c8172",
            "resource": {
                "resourceType": "Observation",
                "id": "442bea08-a691-488c-ac66-a867b86c8172",
                "meta": {
                    "profile": [
                        "https://fhir.hl7.org.uk/STU3/StructureDefinition/CareConnect-Observation-1"
                    ]
                },
                "status": "unknown",
                "code": {
                    "coding": [
                        {
                            "system": "http://read.info/readv2",
                            "code": "429..",
                            "display": "Mean corpusc. Hb. conc. (MCHC)"
                        }
                    ]
                },
                "subject": {
                    "reference": "urn:uuid:94e8eba9-09e3-4823-b7a2-326ef06db1b1"
                },
                "performer": [
                    {
                        "reference": "urn:uuid:377ea1ea-1281-40df-8fea-8568dea55dd6"
                    },
                    {
                        "reference": "urn:uuid:5a56ca24-98b0-4ada-a341-2c3c0d2d250e"
                    }
                ],
                "valueQuantity": {
                    "value": 34.8,
                    "unit": "g/dL"
                },
                "specimen": {
                    "reference": "urn:uuid:65e11f16-fe18-4324-9095-d2df3b7db835"
                },
                "referenceRange": [
                    {
                        "low": {
                            "value": 30
                        },
                        "high": {
                            "value": 37
                        }
                    }
                ],
                "related": [
                    {
                        "target": {
                            "reference": "urn:uuid:3d156e00-42fd-4528-9f46-d9c7f678d683"
                        }
                    }
                ]
            }
        },
        {
            "fullUrl": "urn:uuid:7411683f-2263-4e73-b52d-bc4d600f5491",
            "resource": {
                "resourceType": "Observation",
                "id": "7411683f-2263-4e73-b52d-bc4d600f5491",
                "meta": {
                    "profile": [
                        "https://fhir.hl7.org.uk/STU3/StructureDefinition/CareConnect-Observation-1"
                    ]
                },
                "status": "unknown",
                "code": {
                    "coding": [
                        {
                            "system": "http://read.info/readv2",
                            "code": "42P..",
                            "display": "Platelet count"
                        }
                    ]
                },
                "subject": {
                    "reference": "urn:uuid:94e8eba9-09e3-4823-b7a2-326ef06db1b1"
                },
                "performer": [
                    {
                        "reference": "urn:uuid:377ea1ea-1281-40df-8fea-8568dea55dd6"
                    },
                    {
                        "reference": "urn:uuid:5a56ca24-98b0-4ada-a341-2c3c0d2d250e"
                    }
                ],
                "valueQuantity": {
                    "value": 220,
                    "unit": "10*9/L"
                },
                "specimen": {
                    "reference": "urn:uuid:65e11f16-fe18-4324-9095-d2df3b7db835"
                },
                "referenceRange": [
                    {
                        "low": {
                            "value": 150
                        },
                        "high": {
                            "value": 600
                        }
                    }
                ],
                "related": [
                    {
                        "target": {
                            "reference": "urn:uuid:3d156e00-42fd-4528-9f46-d9c7f678d683"
                        }
                    }
                ]
            }
        },
        {
            "fullUrl": "urn:uuid:a6270179-8a48-4ad6-b6a5-21eff0c69c10",
            "resource": {
                "resourceType": "Observation",
                "id": "a6270179-8a48-4ad6-b6a5-21eff0c69c10",
                "meta": {
                    "profile": [
                        "https://fhir.hl7.org.uk/STU3/StructureDefinition/CareConnect-Observation-1"
                    ]
                },
                "status": "unknown",
                "code": {
                    "coding": [
                        {
                            "system": "http://read.info/readv2",
                            "code": "42J..",
                            "display": "Neutrophil count"
                        }
                    ]
                },
                "subject": {
                    "reference": "urn:uuid:94e8eba9-09e3-4823-b7a2-326ef06db1b1"
                },
                "performer": [
                    {
                        "reference": "urn:uuid:377ea1ea-1281-40df-8fea-8568dea55dd6"
                    },
                    {
                        "reference": "urn:uuid:5a56ca24-98b0-4ada-a341-2c3c0d2d250e"
                    }
                ],
                "valueQuantity": {
                    "value": 7.4,
                    "unit": "10*9/L"
                },
                "specimen": {
                    "reference": "urn:uuid:65e11f16-fe18-4324-9095-d2df3b7db835"
                },
                "referenceRange": [
                    {
                        "low": {
                            "value": 2.0
                        },
                        "high": {
                            "value": 7.5
                        }
                    }
                ],
                "related": [
                    {
                        "target": {
                            "reference": "urn:uuid:3d156e00-42fd-4528-9f46-d9c7f678d683"
                        }
                    }
                ]
            }
        },
        {
            "fullUrl": "urn:uuid:489de767-a164-4a07-81eb-647079f448a9",
            "resource": {
                "resourceType": "Observation",
                "id": "489de767-a164-4a07-81eb-647079f448a9",
                "meta": {
                    "profile": [
                        "https://fhir.hl7.org.uk/STU3/StructureDefinition/CareConnect-Observation-1"
                    ]
                },
                "status": "unknown",
                "code": {
                    "coding": [
                        {
                            "system": "http://read.info/readv2",
                            "code": "42M..",
                            "display": "Lymphocyte count"
                        }
                    ]
                },
                "subject": {
                    "reference": "urn:uuid:94e8eba9-09e3-4823-b7a2-326ef06db1b1"
                },
                "performer": [
                    {
                        "reference": "urn:uuid:377ea1ea-1281-40df-8fea-8568dea55dd6"
                    },
                    {
                        "reference": "urn:uuid:5a56ca24-98b0-4ada-a341-2c3c0d2d250e"
                    }
                ],
                "valueQuantity": {
                    "value": 0.1,
                    "unit": "10*9/L"
                },
                "specimen": {
                    "reference": "urn:uuid:65e11f16-fe18-4324-9095-d2df3b7db835"
                },
                "referenceRange": [
                    {
                        "low": {
                            "value": 1.0
                        },
                        "high": {
                            "value": 4.0
                        }
                    }
                ],
                "related": [
                    {
                        "target": {
                            "reference": "urn:uuid:3d156e00-42fd-4528-9f46-d9c7f678d683"
                        }
                    }
                ]
            }
        },
        {
            "fullUrl": "urn:uuid:625cd481-9e4b-4342-a925-69c23683d533",
            "resource": {
                "resourceType": "Observation",
                "id": "625cd481-9e4b-4342-a925-69c23683d533",
                "meta": {
                    "profile": [
                        "https://fhir.hl7.org.uk/STU3/StructureDefinition/CareConnect-Observation-1"
                    ]
                },
                "status": "unknown",
                "code": {
                    "coding": [
                        {
                            "system": "http://read.info/readv2",
                            "code": "42N..",
                            "display": "Monocyte count"
                        }
                    ]
                },
                "subject": {
                    "reference": "urn:uuid:94e8eba9-09e3-4823-b7a2-326ef06db1b1"
                },
                "performer": [
                    {
                        "reference": "urn:uuid:377ea1ea-1281-40df-8fea-8568dea55dd6"
                    },
                    {
                        "reference": "urn:uuid:5a56ca24-98b0-4ada-a341-2c3c0d2d250e"
                    }
                ],
                "valueQuantity": {
                    "value": 0.1,
                    "unit": "10*9/L"
                },
                "specimen": {
                    "reference": "urn:uuid:65e11f16-fe18-4324-9095-d2df3b7db835"
                },
                "referenceRange": [
                    {
                        "low": {
                            "value": 0.2
                        },
                        "high": {
                            "value": 1.0
                        }
                    }
                ],
                "related": [
                    {
                        "target": {
                            "reference": "urn:uuid:3d156e00-42fd-4528-9f46-d9c7f678d683"
                        }
                    }
                ]
            }
        },
        {
            "fullUrl": "urn:uuid:20fe3b54-ef0f-4866-8860-bc72d61932f1",
            "resource": {
                "resourceType": "Observation",
                "id": "20fe3b54-ef0f-4866-8860-bc72d61932f1",
                "meta": {
                    "profile": [
                        "https://fhir.hl7.org.uk/STU3/StructureDefinition/CareConnect-Observation-1"
                    ]
                },
                "status": "unknown",
                "code": {
                    "coding": [
                        {
                            "system": "http://read.info/readv2",
                            "code": "42K..",
                            "display": "Eosinophil count"
                        }
                    ]
                },
                "subject": {
                    "reference": "urn:uuid:94e8eba9-09e3-4823-b7a2-326ef06db1b1"
                },
                "performer": [
                    {
                        "reference": "urn:uuid:377ea1ea-1281-40df-8fea-8568dea55dd6"
                    },
                    {
                        "reference": "urn:uuid:5a56ca24-98b0-4ada-a341-2c3c0d2d250e"
                    }
                ],
                "valueQuantity": {
                    "value": 0.1,
                    "comparator": "<",
                    "unit": "10*9/L"
                },
                "specimen": {
                    "reference": "urn:uuid:65e11f16-fe18-4324-9095-d2df3b7db835"
                },
                "referenceRange": [
                    {
                        "low": {
                            "value": 0
                        },
                        "high": {
                            "value": 0.6
                        }
                    }
                ],
                "related": [
                    {
                        "target": {
                            "reference": "urn:uuid:3d156e00-42fd-4528-9f46-d9c7f678d683"
                        }
                    }
                ]
            }
        },
        {
            "fullUrl": "urn:uuid:d2d45edb-0c61-44c0-8af0-2f755dd24576",
            "resource": {
                "resourceType": "Observation",
                "id": "d2d45edb-0c61-44c0-8af0-2f755dd24576",
                "meta": {
                    "profile": [
                        "https://fhir.hl7.org.uk/STU3/StructureDefinition/CareConnect-Observation-1"
                    ]
                },
                "status": "unknown",
                "code": {
                    "coding": [
                        {
                            "system": "http://read.info/readv2",
                            "code": "42L..",
                            "display": "Basophil count"
                        }
                    ]
                },
                "subject": {
                    "reference": "urn:uuid:94e8eba9-09e3-4823-b7a2-326ef06db1b1"
                },
                "performer": [
                    {
                        "reference": "urn:uuid:377ea1ea-1281-40df-8fea-8568dea55dd6"
                    },
                    {
                        "reference": "urn:uuid:5a56ca24-98b0-4ada-a341-2c3c0d2d250e"
                    }
                ],
                "valueQuantity": {
                    "value": 0.0,
                    "unit": "10*9/L"
                },
                "specimen": {
                    "reference": "urn:uuid:65e11f16-fe18-4324-9095-d2df3b7db835"
                },
                "referenceRange": [
                    {
                        "low": {
                            "value": 0.00
                        },
                        "high": {
                            "value": 0.3
                        }
                    }
                ],
                "related": [
                    {
                        "target": {
                            "reference": "urn:uuid:3d156e00-42fd-4528-9f46-d9c7f678d683"
                        }
                    }
                ]
            }
        }
    ]
}