{
    "resourceType": "Bundle",
    "id": "5bdab686-2254-4f08-961a-6646a9942145",
    "meta": {
        "lastUpdated": "2021-05-31T12:46:23.552+01:00",
        "profile": [
            "https://fhir.nhs.uk/STU3/StructureDefinition/ITK-Message-Bundle-1"
        ]
    },
    "identifier": {
        "system": "https://tools.ietf.org/html/rfc4122",
        "value": "2ab9fd75-d976-435a-a8a2-343d10957b84"
    },
    "type": "message",
    "entry": [
        {
            "fullUrl": "urn:uuid:ffcdf396-09ab-44e5-ac1d-e1a9f1857493",
            "resource": {
                "resourceType": "MessageHeader",
                "id": "ffcdf396-09ab-44e5-ac1d-e1a9f1857493",
                "meta": {
                    "profile": [
                        "https://fhir.nhs.uk/STU3/StructureDefinition/ITK-MessageHeader-2"
                    ]
                },
                "extension": [
                    {
                        "url": "https://fhir.nhs.uk/STU3/StructureDefinition/Extension-ITK-MessageHandling-2",
                        "extension": [
                            {
                                "url": "BusAckRequested",
                                "valueBoolean": true
                            },
                            {
                                "url": "InfAckRequested",
                                "valueBoolean": true
                            },
                            {
                                "url": "RecipientType",
                                "valueCoding": {
                                    "system": "https://fhir.nhs.uk/STU3/CodeSystem/ITK-RecipientType-1",
                                    "code": "FA",
                                    "display": "For Action"
                                }
                            },
                            {
                                "url": "SenderReference",
                                "valueString": "None"
                            },
                            {
                                "url": "LocalExtension",
                                "valueString": "None"
                            }
                        ]
                    }
                ],
                "event": {
                    "system": "https://fhir.nhs.uk/STU3/CodeSystem/ITK-MessageEvent-2",
                    "code": "ITK012M",
                    "display": "ITK National Pathology"
                },
                "receiver": {
                    "reference": "urn:uuid:77c0a173-a75d-4f26-a80c-9a6aabd86990"
                },
                "sender": {
                    "reference": "urn:uuid:15319d85-50d1-494a-9bcd-8e18584c41ef"
                },
                "timestamp": "2010-03-01T17:51:00.000+00:00",
                "source": {
                    "endpoint": "lab_results_mailbox"
                },
                "responsible": {
                    "reference": "urn:uuid:15319d85-50d1-494a-9bcd-8e18584c41ef"
                },
                "focus": [
                    {
                        "reference": "urn:uuid:ac9f4a91-2677-47fd-97e1-e08f8abd5077"
                    }
                ]
            }
        },
        {
            "fullUrl": "urn:uuid:05f283e9-6588-4bdc-a274-d482887df35c",
            "resource": {
                "resourceType": "Patient",
                "id": "05f283e9-6588-4bdc-a274-d482887df35c",
                "meta": {
                    "profile": [
                        "https://fhir.hl7.org.uk/STU3/StructureDefinition/CareConnect-Patient-1"
                    ]
                },
                "identifier": [
                    {
                        "id": "Z77553311"
                    }
                ],
                "name": [
                    {
                        "use": "official",
                        "family": "SPRINGATE",
                        "given": [
                            "SYDNEY"
                        ]
                    }
                ],
                "birthDate": "1962-11-01",
                "address": [
                    {
                        "line": [
                            "FLAT1",
                            "1 LUMBY",
                            "PUDSEY",
                            "LEEDS"
                        ],
                        "postalCode": "LS25 5PR"
                    }
                ]
            }
        },
        {
            "fullUrl": "urn:uuid:54141d9f-fbf0-4fbf-bc85-6766924fe759",
            "resource": {
                "resourceType": "Practitioner",
                "id": "54141d9f-fbf0-4fbf-bc85-6766924fe759",
                "meta": {
                    "profile": [
                        "https://fhir.hl7.org.uk/STU3/StructureDefinition/CareConnect-Practitioner-1"
                    ]
                },
                "identifier": [
                    {
                        "system": "https://fhir.nhs.uk/Id/sds-user-id",
                        "value": "G3380314"
                    }
                ],
                "name": [
                    {
                        "text": "SCOTT"
                    }
                ]
            }
        },
        {
            "fullUrl": "urn:uuid:77c0a173-a75d-4f26-a80c-9a6aabd86990",
            "resource": {
                "resourceType": "Organization",
                "id": "77c0a173-a75d-4f26-a80c-9a6aabd86990",
                "meta": {
                    "profile": [
                        "https://fhir.hl7.org.uk/STU3/StructureDefinition/CareConnect-Organization-1"
                    ]
                }
            }
        },
        {
            "fullUrl": "urn:uuid:4668a4ec-2609-447a-bcbc-66208123162a",
            "resource": {
                "resourceType": "Practitioner",
                "id": "4668a4ec-2609-447a-bcbc-66208123162a",
                "meta": {
                    "profile": [
                        "https://fhir.hl7.org.uk/STU3/StructureDefinition/CareConnect-Practitioner-1"
                    ]
                }
            }
        },
        {
            "fullUrl": "urn:uuid:15319d85-50d1-494a-9bcd-8e18584c41ef",
            "resource": {
                "resourceType": "Organization",
                "id": "15319d85-50d1-494a-9bcd-8e18584c41ef",
                "meta": {
                    "profile": [
                        "https://fhir.hl7.org.uk/STU3/StructureDefinition/CareConnect-Organization-1"
                    ]
                },
                "type": [
                    {
                        "coding": [
                            {
                                "code": "dept",
                                "display": "Haematology Dept."
                            }
                        ]
                    }
                ],
                "name": "ST JAMES'S UNIVERSITY HOSPITAL"
            }
        },
        {
            "fullUrl": "urn:uuid:3791da41-8b1c-443a-8a9a-7f32cb263d25",
            "resource": {
                "resourceType": "ProcedureRequest",
                "id": "3791da41-8b1c-443a-8a9a-7f32cb263d25",
                "meta": {
                    "profile": [
                        "https://fhir.hl7.org.uk/STU3/StructureDefinition/CareConnect-ProcedureRequest-1"
                    ]
                },
                "status": "unknown",
                "intent": "order",
                "code": {
                    "coding": [
                        {
                            "system": "http://snomed.info/sct",
                            "code": "15220000",
                            "display": "Laboratory test (procedure)"
                        }
                    ]
                },
                "subject": {
                    "reference": "urn:uuid:05f283e9-6588-4bdc-a274-d482887df35c"
                },
                "requester": {
                    "agent": {
                        "reference": "urn:uuid:54141d9f-fbf0-4fbf-bc85-6766924fe759"
                    },
                    "onBehalfOf": {
                        "reference": "urn:uuid:77c0a173-a75d-4f26-a80c-9a6aabd86990"
                    }
                },
                "performer": {
                    "reference": "urn:uuid:4668a4ec-2609-447a-bcbc-66208123162a"
                },
                "note": [
                    {
                        "text": "ON AZATHIOPRINE"
                    }
                ]
            }
        },
        {
            "fullUrl": "urn:uuid:ac9f4a91-2677-47fd-97e1-e08f8abd5077",
            "resource": {
                "resourceType": "DiagnosticReport",
                "id": "ac9f4a91-2677-47fd-97e1-e08f8abd5077",
                "meta": {
                    "profile": [
                        "https://fhir.hl7.org.uk/STU3/StructureDefinition/CareConnect-DiagnosticReport-1"
                    ]
                },
                "identifier": [
                    {
                        "system": "https://tools.ietf.org/html/rfc4122",
                        "value": "15/CH000041O/200010191704"
                    }
                ],
                "basedOn": [
                    {
                        "reference": "urn:uuid:3791da41-8b1c-443a-8a9a-7f32cb263d25"
                    }
                ],
                "status": "unknown",
                "code": {
                    "coding": [
                        {
                            "system": "http://snomed.info/sct",
                            "code": "721981007",
                            "display": "Diagnostic studies report"
                        }
                    ]
                },
                "subject": {
                    "reference": "urn:uuid:05f283e9-6588-4bdc-a274-d482887df35c"
                },
                "issued": "2010-02-25T15:41:00.000+00:00",
                "performer": [
                    {
                        "actor": {
                            "reference": "urn:uuid:15319d85-50d1-494a-9bcd-8e18584c41ef"
                        }
                    },
                    {
                        "actor": {
                            "reference": "urn:uuid:4668a4ec-2609-447a-bcbc-66208123162a"
                        }
                    }
                ],
                "specimen": [
                    {
                        "reference": "urn:uuid:5d2901f8-689d-45ca-8d82-8a375f0da5c7"
                    }
                ],
                "result": [
                    {
                        "reference": "urn:uuid:2cb35c90-4756-40d4-931a-c74f69e4bed2"
                    }
                ]
            }
        },
        {
            "fullUrl": "urn:uuid:5d2901f8-689d-45ca-8d82-8a375f0da5c7",
            "resource": {
                "resourceType": "Specimen",
                "id": "5d2901f8-689d-45ca-8d82-8a375f0da5c7",
                "meta": {
                    "profile": [
                        "https://fhir.hl7.org.uk/STU3/StructureDefinition/CareConnect-Specimen-1"
                    ]
                },
                "accessionIdentifier": {
                    "system": "http://lab.acme.org/specimens/2011",
                    "value": "CH000041OC"
                },
                "type": {
                    "coding": [
                        {
                            "system": "http://snomed.info/sct",
                            "display": "VENOUS BLOOD"
                        }
                    ]
                },
                "subject": {
                    "reference": "urn:uuid:05f283e9-6588-4bdc-a274-d482887df35c"
                },
                "collection": {
                    "collectedDateTime": "2010-02-23"
                }
            }
        },
        {
            "fullUrl": "urn:uuid:2cb35c90-4756-40d4-931a-c74f69e4bed2",
            "resource": {
                "resourceType": "Observation",
                "id": "2cb35c90-4756-40d4-931a-c74f69e4bed2",
                "meta": {
                    "profile": [
                        "https://fhir.hl7.org.uk/STU3/StructureDefinition/CareConnect-Observation-1"
                    ]
                },
                "status": "unknown",
                "code": {
                    "coding": [
                        {
                            "system": "http://read.info/readv2",
                            "code": "424..",
                            "display": "Full blood count - FBC"
                        }
                    ]
                },
                "subject": {
                    "reference": "urn:uuid:05f283e9-6588-4bdc-a274-d482887df35c"
                },
                "performer": [
                    {
                        "reference": "urn:uuid:15319d85-50d1-494a-9bcd-8e18584c41ef"
                    },
                    {
                        "reference": "urn:uuid:4668a4ec-2609-447a-bcbc-66208123162a"
                    }
                ],
                "specimen": {
                    "reference": "urn:uuid:5d2901f8-689d-45ca-8d82-8a375f0da5c7"
                },
                "related": [
                    {
                        "type": "has-member",
                        "target": {
                            "reference": "urn:uuid:dd1220f9-3572-4920-a9f3-726a2aeebe3c"
                        }
                    },
                    {
                        "type": "has-member",
                        "target": {
                            "reference": "urn:uuid:a7540081-5c27-453f-9761-1a6e720d23bf"
                        }
                    },
                    {
                        "type": "has-member",
                        "target": {
                            "reference": "urn:uuid:6f0848af-ff4b-4f91-9145-a9a976ea459e"
                        }
                    },
                    {
                        "type": "has-member",
                        "target": {
                            "reference": "urn:uuid:7ab00287-72e4-46c5-aaa7-f2c2a0226c0f"
                        }
                    },
                    {
                        "type": "has-member",
                        "target": {
                            "reference": "urn:uuid:0a89f026-b4a9-4b34-bac3-e481a6c44729"
                        }
                    },
                    {
                        "type": "has-member",
                        "target": {
                            "reference": "urn:uuid:b380663c-b274-41fa-ad8c-3ccf511f01dc"
                        }
                    },
                    {
                        "type": "has-member",
                        "target": {
                            "reference": "urn:uuid:65f48ba0-c126-4276-a93f-d77435669ad1"
                        }
                    },
                    {
                        "type": "has-member",
                        "target": {
                            "reference": "urn:uuid:9d022242-0be4-4bdd-8d32-5756377f4c52"
                        }
                    },
                    {
                        "type": "has-member",
                        "target": {
                            "reference": "urn:uuid:7a0112c8-7b26-4dea-91e6-f626cda4908c"
                        }
                    },
                    {
                        "type": "has-member",
                        "target": {
                            "reference": "urn:uuid:8b07c25e-8817-41de-bb96-6dc5c5b4ef86"
                        }
                    },
                    {
                        "type": "has-member",
                        "target": {
                            "reference": "urn:uuid:a4710b62-159e-476a-b48b-aec6fca2c6b5"
                        }
                    },
                    {
                        "type": "has-member",
                        "target": {
                            "reference": "urn:uuid:9baf1f6c-3e38-4d62-b2ba-2e070dc4d42c"
                        }
                    },
                    {
                        "type": "has-member",
                        "target": {
                            "reference": "urn:uuid:2475af3a-15b9-47c0-942c-e7301f5ee4e9"
                        }
                    }
                ]
            }
        },
        {
            "fullUrl": "urn:uuid:dd1220f9-3572-4920-a9f3-726a2aeebe3c",
            "resource": {
                "resourceType": "Observation",
                "id": "dd1220f9-3572-4920-a9f3-726a2aeebe3c",
                "meta": {
                    "profile": [
                        "https://fhir.hl7.org.uk/STU3/StructureDefinition/CareConnect-Observation-1"
                    ]
                },
                "status": "unknown",
                "code": {
                    "coding": [
                        {
                            "system": "http://read.info/readv2",
                            "code": "42H..",
                            "display": "Total white cell count"
                        }
                    ]
                },
                "subject": {
                    "reference": "urn:uuid:05f283e9-6588-4bdc-a274-d482887df35c"
                },
                "performer": [
                    {
                        "reference": "urn:uuid:15319d85-50d1-494a-9bcd-8e18584c41ef"
                    },
                    {
                        "reference": "urn:uuid:4668a4ec-2609-447a-bcbc-66208123162a"
                    }
                ],
                "valueQuantity": {
                    "value": 7.6,
                    "unit": "10*9/L"
                },
                "specimen": {
                    "reference": "urn:uuid:5d2901f8-689d-45ca-8d82-8a375f0da5c7"
                },
                "referenceRange": [
                    {
                        "low": {
                            "value": 4.0
                        },
                        "high": {
                            "value": 11.0
                        }
                    }
                ],
                "related": [
                    {
                        "target": {
                            "reference": "urn:uuid:2cb35c90-4756-40d4-931a-c74f69e4bed2"
                        }
                    }
                ]
            }
        },
        {
            "fullUrl": "urn:uuid:a7540081-5c27-453f-9761-1a6e720d23bf",
            "resource": {
                "resourceType": "Observation",
                "id": "a7540081-5c27-453f-9761-1a6e720d23bf",
                "meta": {
                    "profile": [
                        "https://fhir.hl7.org.uk/STU3/StructureDefinition/CareConnect-Observation-1"
                    ]
                },
                "status": "unknown",
                "code": {
                    "coding": [
                        {
                            "system": "http://read.info/readv2",
                            "code": "426..",
                            "display": "Red blood cell (RBC) count"
                        }
                    ]
                },
                "subject": {
                    "reference": "urn:uuid:05f283e9-6588-4bdc-a274-d482887df35c"
                },
                "performer": [
                    {
                        "reference": "urn:uuid:15319d85-50d1-494a-9bcd-8e18584c41ef"
                    },
                    {
                        "reference": "urn:uuid:4668a4ec-2609-447a-bcbc-66208123162a"
                    }
                ],
                "valueQuantity": {
                    "value": 2.84,
                    "unit": "10*12/L"
                },
                "interpretation": {
                    "coding": [
                        {
                            "system": "http://hl7.org/fhir/v2/0078",
                            "code": "L",
                            "display": "Low"
                        }
                    ]
                },
                "specimen": {
                    "reference": "urn:uuid:5d2901f8-689d-45ca-8d82-8a375f0da5c7"
                },
                "referenceRange": [
                    {
                        "low": {
                            "value": 3.8
                        },
                        "high": {
                            "value": 5.4
                        }
                    }
                ],
                "related": [
                    {
                        "target": {
                            "reference": "urn:uuid:2cb35c90-4756-40d4-931a-c74f69e4bed2"
                        }
                    }
                ]
            }
        },
        {
            "fullUrl": "urn:uuid:6f0848af-ff4b-4f91-9145-a9a976ea459e",
            "resource": {
                "resourceType": "Observation",
                "id": "6f0848af-ff4b-4f91-9145-a9a976ea459e",
                "meta": {
                    "profile": [
                        "https://fhir.hl7.org.uk/STU3/StructureDefinition/CareConnect-Observation-1"
                    ]
                },
                "status": "unknown",
                "code": {
                    "coding": [
                        {
                            "system": "http://read.info/readv2",
                            "code": "423..",
                            "display": "Haemoglobin estimation"
                        }
                    ]
                },
                "subject": {
                    "reference": "urn:uuid:05f283e9-6588-4bdc-a274-d482887df35c"
                },
                "performer": [
                    {
                        "reference": "urn:uuid:15319d85-50d1-494a-9bcd-8e18584c41ef"
                    },
                    {
                        "reference": "urn:uuid:4668a4ec-2609-447a-bcbc-66208123162a"
                    }
                ],
                "valueQuantity": {
                    "value": 11.0,
                    "unit": "g/dL"
                },
                "specimen": {
                    "reference": "urn:uuid:5d2901f8-689d-45ca-8d82-8a375f0da5c7"
                },
                "referenceRange": [
                    {
                        "low": {
                            "value": 10.5
                        },
                        "high": {
                            "value": 15.0
                        }
                    }
                ],
                "related": [
                    {
                        "target": {
                            "reference": "urn:uuid:2cb35c90-4756-40d4-931a-c74f69e4bed2"
                        }
                    }
                ]
            }
        },
        {
            "fullUrl": "urn:uuid:7ab00287-72e4-46c5-aaa7-f2c2a0226c0f",
            "resource": {
                "resourceType": "Observation",
                "id": "7ab00287-72e4-46c5-aaa7-f2c2a0226c0f",
                "meta": {
                    "profile": [
                        "https://fhir.hl7.org.uk/STU3/StructureDefinition/CareConnect-Observation-1"
                    ]
                },
                "status": "unknown",
                "code": {
                    "coding": [
                        {
                            "system": "http://read.info/readv2",
                            "code": "4258.",
                            "display": "Haematocrit"
                        }
                    ]
                },
                "subject": {
                    "reference": "urn:uuid:05f283e9-6588-4bdc-a274-d482887df35c"
                },
                "performer": [
                    {
                        "reference": "urn:uuid:15319d85-50d1-494a-9bcd-8e18584c41ef"
                    },
                    {
                        "reference": "urn:uuid:4668a4ec-2609-447a-bcbc-66208123162a"
                    }
                ],
                "valueQuantity": {
                    "value": 0.315,
                    "unit": "%"
                },
                "interpretation": {
                    "coding": [
                        {
                            "system": "http://hl7.org/fhir/v2/0078",
                            "code": "L",
                            "display": "Low"
                        }
                    ]
                },
                "specimen": {
                    "reference": "urn:uuid:5d2901f8-689d-45ca-8d82-8a375f0da5c7"
                },
                "referenceRange": [
                    {
                        "low": {
                            "value": 0.370
                        },
                        "high": {
                            "value": 0.470
                        }
                    }
                ],
                "related": [
                    {
                        "target": {
                            "reference": "urn:uuid:2cb35c90-4756-40d4-931a-c74f69e4bed2"
                        }
                    }
                ]
            }
        },
        {
            "fullUrl": "urn:uuid:0a89f026-b4a9-4b34-bac3-e481a6c44729",
            "resource": {
                "resourceType": "Observation",
                "id": "0a89f026-b4a9-4b34-bac3-e481a6c44729",
                "meta": {
                    "profile": [
                        "https://fhir.hl7.org.uk/STU3/StructureDefinition/CareConnect-Observation-1"
                    ]
                },
                "status": "unknown",
                "code": {
                    "coding": [
                        {
                            "system": "http://read.info/readv2",
                            "code": "42A..",
                            "display": "Mean corpuscular volume (MCV)"
                        }
                    ]
                },
                "subject": {
                    "reference": "urn:uuid:05f283e9-6588-4bdc-a274-d482887df35c"
                },
                "performer": [
                    {
                        "reference": "urn:uuid:15319d85-50d1-494a-9bcd-8e18584c41ef"
                    },
                    {
                        "reference": "urn:uuid:4668a4ec-2609-447a-bcbc-66208123162a"
                    }
                ],
                "valueQuantity": {
                    "value": 111.1,
                    "unit": "fL"
                },
                "interpretation": {
                    "coding": [
                        {
                            "system": "http://hl7.org/fhir/v2/0078",
                            "code": "H",
                            "display": "High"
                        }
                    ]
                },
                "specimen": {
                    "reference": "urn:uuid:5d2901f8-689d-45ca-8d82-8a375f0da5c7"
                },
                "referenceRange": [
                    {
                        "low": {
                            "value": 76
                        },
                        "high": {
                            "value": 100
                        }
                    }
                ],
                "related": [
                    {
                        "target": {
                            "reference": "urn:uuid:2cb35c90-4756-40d4-931a-c74f69e4bed2"
                        }
                    }
                ]
            }
        },
        {
            "fullUrl": "urn:uuid:b380663c-b274-41fa-ad8c-3ccf511f01dc",
            "resource": {
                "resourceType": "Observation",
                "id": "b380663c-b274-41fa-ad8c-3ccf511f01dc",
                "meta": {
                    "profile": [
                        "https://fhir.hl7.org.uk/STU3/StructureDefinition/CareConnect-Observation-1"
                    ]
                },
                "status": "unknown",
                "code": {
                    "coding": [
                        {
                            "system": "http://read.info/readv2",
                            "code": "428..",
                            "display": "Mean corpusc. haemoglobin(MCH)"
                        }
                    ]
                },
                "subject": {
                    "reference": "urn:uuid:05f283e9-6588-4bdc-a274-d482887df35c"
                },
                "performer": [
                    {
                        "reference": "urn:uuid:15319d85-50d1-494a-9bcd-8e18584c41ef"
                    },
                    {
                        "reference": "urn:uuid:4668a4ec-2609-447a-bcbc-66208123162a"
                    }
                ],
                "valueQuantity": {
                    "value": 38.7,
                    "unit": "pg"
                },
                "interpretation": {
                    "coding": [
                        {
                            "system": "http://hl7.org/fhir/v2/0078",
                            "code": "H",
                            "display": "High"
                        }
                    ]
                },
                "specimen": {
                    "reference": "urn:uuid:5d2901f8-689d-45ca-8d82-8a375f0da5c7"
                },
                "referenceRange": [
                    {
                        "low": {
                            "value": 26
                        },
                        "high": {
                            "value": 32
                        }
                    }
                ],
                "related": [
                    {
                        "target": {
                            "reference": "urn:uuid:2cb35c90-4756-40d4-931a-c74f69e4bed2"
                        }
                    }
                ]
            }
        },
        {
            "fullUrl": "urn:uuid:65f48ba0-c126-4276-a93f-d77435669ad1",
            "resource": {
                "resourceType": "Observation",
                "id": "65f48ba0-c126-4276-a93f-d77435669ad1",
                "meta": {
                    "profile": [
                        "https://fhir.hl7.org.uk/STU3/StructureDefinition/CareConnect-Observation-1"
                    ]
                },
                "status": "unknown",
                "code": {
                    "coding": [
                        {
                            "system": "http://read.info/readv2",
                            "code": "429..",
                            "display": "Mean corpusc. Hb. conc. (MCHC)"
                        }
                    ]
                },
                "subject": {
                    "reference": "urn:uuid:05f283e9-6588-4bdc-a274-d482887df35c"
                },
                "performer": [
                    {
                        "reference": "urn:uuid:15319d85-50d1-494a-9bcd-8e18584c41ef"
                    },
                    {
                        "reference": "urn:uuid:4668a4ec-2609-447a-bcbc-66208123162a"
                    }
                ],
                "valueQuantity": {
                    "value": 34.8,
                    "unit": "g/dL"
                },
                "specimen": {
                    "reference": "urn:uuid:5d2901f8-689d-45ca-8d82-8a375f0da5c7"
                },
                "referenceRange": [
                    {
                        "low": {
                            "value": 30
                        },
                        "high": {
                            "value": 37
                        }
                    }
                ],
                "related": [
                    {
                        "target": {
                            "reference": "urn:uuid:2cb35c90-4756-40d4-931a-c74f69e4bed2"
                        }
                    }
                ]
            }
        },
        {
            "fullUrl": "urn:uuid:9d022242-0be4-4bdd-8d32-5756377f4c52",
            "resource": {
                "resourceType": "Observation",
                "id": "9d022242-0be4-4bdd-8d32-5756377f4c52",
                "meta": {
                    "profile": [
                        "https://fhir.hl7.org.uk/STU3/StructureDefinition/CareConnect-Observation-1"
                    ]
                },
                "status": "unknown",
                "code": {
                    "coding": [
                        {
                            "system": "http://read.info/readv2",
                            "code": "42P..",
                            "display": "Platelet count"
                        }
                    ]
                },
                "subject": {
                    "reference": "urn:uuid:05f283e9-6588-4bdc-a274-d482887df35c"
                },
                "performer": [
                    {
                        "reference": "urn:uuid:15319d85-50d1-494a-9bcd-8e18584c41ef"
                    },
                    {
                        "reference": "urn:uuid:4668a4ec-2609-447a-bcbc-66208123162a"
                    }
                ],
                "valueQuantity": {
                    "value": 220,
                    "unit": "10*9/L"
                },
                "specimen": {
                    "reference": "urn:uuid:5d2901f8-689d-45ca-8d82-8a375f0da5c7"
                },
                "referenceRange": [
                    {
                        "low": {
                            "value": 150
                        },
                        "high": {
                            "value": 600
                        }
                    }
                ],
                "related": [
                    {
                        "target": {
                            "reference": "urn:uuid:2cb35c90-4756-40d4-931a-c74f69e4bed2"
                        }
                    }
                ]
            }
        },
        {
            "fullUrl": "urn:uuid:7a0112c8-7b26-4dea-91e6-f626cda4908c",
            "resource": {
                "resourceType": "Observation",
                "id": "7a0112c8-7b26-4dea-91e6-f626cda4908c",
                "meta": {
                    "profile": [
                        "https://fhir.hl7.org.uk/STU3/StructureDefinition/CareConnect-Observation-1"
                    ]
                },
                "status": "unknown",
                "code": {
                    "coding": [
                        {
                            "system": "http://read.info/readv2",
                            "code": "42J..",
                            "display": "Neutrophil count"
                        }
                    ]
                },
                "subject": {
                    "reference": "urn:uuid:05f283e9-6588-4bdc-a274-d482887df35c"
                },
                "performer": [
                    {
                        "reference": "urn:uuid:15319d85-50d1-494a-9bcd-8e18584c41ef"
                    },
                    {
                        "reference": "urn:uuid:4668a4ec-2609-447a-bcbc-66208123162a"
                    }
                ],
                "valueQuantity": {
                    "value": 7.4,
                    "unit": "10*9/L"
                },
                "specimen": {
                    "reference": "urn:uuid:5d2901f8-689d-45ca-8d82-8a375f0da5c7"
                },
                "referenceRange": [
                    {
                        "low": {
                            "value": 2.0
                        },
                        "high": {
                            "value": 7.5
                        }
                    }
                ],
                "related": [
                    {
                        "target": {
                            "reference": "urn:uuid:2cb35c90-4756-40d4-931a-c74f69e4bed2"
                        }
                    }
                ]
            }
        },
        {
            "fullUrl": "urn:uuid:8b07c25e-8817-41de-bb96-6dc5c5b4ef86",
            "resource": {
                "resourceType": "Observation",
                "id": "8b07c25e-8817-41de-bb96-6dc5c5b4ef86",
                "meta": {
                    "profile": [
                        "https://fhir.hl7.org.uk/STU3/StructureDefinition/CareConnect-Observation-1"
                    ]
                },
                "status": "unknown",
                "code": {
                    "coding": [
                        {
                            "system": "http://read.info/readv2",
                            "code": "42M..",
                            "display": "Lymphocyte count"
                        }
                    ]
                },
                "subject": {
                    "reference": "urn:uuid:05f283e9-6588-4bdc-a274-d482887df35c"
                },
                "performer": [
                    {
                        "reference": "urn:uuid:15319d85-50d1-494a-9bcd-8e18584c41ef"
                    },
                    {
                        "reference": "urn:uuid:4668a4ec-2609-447a-bcbc-66208123162a"
                    }
                ],
                "valueQuantity": {
                    "value": 0.1,
                    "unit": "10*9/L"
                },
                "specimen": {
                    "reference": "urn:uuid:5d2901f8-689d-45ca-8d82-8a375f0da5c7"
                },
                "referenceRange": [
                    {
                        "low": {
                            "value": 1.0
                        },
                        "high": {
                            "value": 4.0
                        }
                    }
                ],
                "related": [
                    {
                        "target": {
                            "reference": "urn:uuid:2cb35c90-4756-40d4-931a-c74f69e4bed2"
                        }
                    }
                ]
            }
        },
        {
            "fullUrl": "urn:uuid:a4710b62-159e-476a-b48b-aec6fca2c6b5",
            "resource": {
                "resourceType": "Observation",
                "id": "a4710b62-159e-476a-b48b-aec6fca2c6b5",
                "meta": {
                    "profile": [
                        "https://fhir.hl7.org.uk/STU3/StructureDefinition/CareConnect-Observation-1"
                    ]
                },
                "status": "unknown",
                "code": {
                    "coding": [
                        {
                            "system": "http://read.info/readv2",
                            "code": "42N..",
                            "display": "Monocyte count"
                        }
                    ]
                },
                "subject": {
                    "reference": "urn:uuid:05f283e9-6588-4bdc-a274-d482887df35c"
                },
                "performer": [
                    {
                        "reference": "urn:uuid:15319d85-50d1-494a-9bcd-8e18584c41ef"
                    },
                    {
                        "reference": "urn:uuid:4668a4ec-2609-447a-bcbc-66208123162a"
                    }
                ],
                "valueQuantity": {
                    "value": 0.1,
                    "unit": "10*9/L"
                },
                "specimen": {
                    "reference": "urn:uuid:5d2901f8-689d-45ca-8d82-8a375f0da5c7"
                },
                "referenceRange": [
                    {
                        "low": {
                            "value": 0.2
                        },
                        "high": {
                            "value": 1.0
                        }
                    }
                ],
                "related": [
                    {
                        "target": {
                            "reference": "urn:uuid:2cb35c90-4756-40d4-931a-c74f69e4bed2"
                        }
                    }
                ]
            }
        },
        {
            "fullUrl": "urn:uuid:9baf1f6c-3e38-4d62-b2ba-2e070dc4d42c",
            "resource": {
                "resourceType": "Observation",
                "id": "9baf1f6c-3e38-4d62-b2ba-2e070dc4d42c",
                "meta": {
                    "profile": [
                        "https://fhir.hl7.org.uk/STU3/StructureDefinition/CareConnect-Observation-1"
                    ]
                },
                "status": "unknown",
                "code": {
                    "coding": [
                        {
                            "system": "http://read.info/readv2",
                            "code": "42K..",
                            "display": "Eosinophil count"
                        }
                    ]
                },
                "subject": {
                    "reference": "urn:uuid:05f283e9-6588-4bdc-a274-d482887df35c"
                },
                "performer": [
                    {
                        "reference": "urn:uuid:15319d85-50d1-494a-9bcd-8e18584c41ef"
                    },
                    {
                        "reference": "urn:uuid:4668a4ec-2609-447a-bcbc-66208123162a"
                    }
                ],
                "valueQuantity": {
                    "value": 0.1,
                    "comparator": "<",
                    "unit": "10*9/L"
                },
                "specimen": {
                    "reference": "urn:uuid:5d2901f8-689d-45ca-8d82-8a375f0da5c7"
                },
                "referenceRange": [
                    {
                        "low": {
                            "value": 0
                        },
                        "high": {
                            "value": 0.6
                        }
                    }
                ],
                "related": [
                    {
                        "target": {
                            "reference": "urn:uuid:2cb35c90-4756-40d4-931a-c74f69e4bed2"
                        }
                    }
                ]
            }
        },
        {
            "fullUrl": "urn:uuid:2475af3a-15b9-47c0-942c-e7301f5ee4e9",
            "resource": {
                "resourceType": "Observation",
                "id": "2475af3a-15b9-47c0-942c-e7301f5ee4e9",
                "meta": {
                    "profile": [
                        "https://fhir.hl7.org.uk/STU3/StructureDefinition/CareConnect-Observation-1"
                    ]
                },
                "status": "unknown",
                "code": {
                    "coding": [
                        {
                            "system": "http://read.info/readv2",
                            "code": "42L..",
                            "display": "Basophil count"
                        }
                    ]
                },
                "subject": {
                    "reference": "urn:uuid:05f283e9-6588-4bdc-a274-d482887df35c"
                },
                "performer": [
                    {
                        "reference": "urn:uuid:15319d85-50d1-494a-9bcd-8e18584c41ef"
                    },
                    {
                        "reference": "urn:uuid:4668a4ec-2609-447a-bcbc-66208123162a"
                    }
                ],
                "valueQuantity": {
                    "value": 0.0,
                    "unit": "10*9/L"
                },
                "specimen": {
                    "reference": "urn:uuid:5d2901f8-689d-45ca-8d82-8a375f0da5c7"
                },
                "referenceRange": [
                    {
                        "low": {
                            "value": 0.00
                        },
                        "high": {
                            "value": 0.3
                        }
                    }
                ],
                "related": [
                    {
                        "target": {
                            "reference": "urn:uuid:2cb35c90-4756-40d4-931a-c74f69e4bed2"
                        }
                    }
                ]
            }
        }
    ]
}