{
    "resourceType": "Bundle",
    "id": "b0c00196-d576-465f-8f5c-c54812b49767",
    "meta": {
        "lastUpdated": "2021-06-08T10:52:56.023+01:00",
        "profile": [
            "https://fhir.nhs.uk/STU3/StructureDefinition/ITK-Message-Bundle-1"
        ]
    },
    "identifier": {
        "system": "https://tools.ietf.org/html/rfc4122",
        "value": "cc2cee45-4b68-4896-b526-42ffbcf651f5"
    },
    "type": "message",
    "entry": [
        {
            "fullUrl": "urn:uuid:9aebc6fd-7ac3-471f-bc8f-420794e55f00",
            "resource": {
                "resourceType": "MessageHeader",
                "id": "9aebc6fd-7ac3-471f-bc8f-420794e55f00",
                "meta": {
                    "profile": [
                        "https://fhir.nhs.uk/STU3/StructureDefinition/ITK-MessageHeader-2"
                    ]
                },
                "extension": [
                    {
                        "url": "https://fhir.nhs.uk/STU3/StructureDefinition/Extension-ITK-MessageHandling-2",
                        "extension": [
                            {
                                "url": "BusAckRequested",
                                "valueBoolean": true
                            },
                            {
                                "url": "InfAckRequested",
                                "valueBoolean": true
                            },
                            {
                                "url": "RecipientType",
                                "valueCoding": {
                                    "system": "https://fhir.nhs.uk/STU3/CodeSystem/ITK-RecipientType-1",
                                    "code": "FA",
                                    "display": "For Action"
                                }
                            },
                            {
                                "url": "SenderReference",
                                "valueString": "None"
                            },
                            {
                                "url": "LocalExtension",
                                "valueString": "None"
                            }
                        ]
                    }
                ],
                "event": {
                    "system": "https://fhir.nhs.uk/STU3/CodeSystem/ITK-MessageEvent-2",
                    "code": "ITK012M",
                    "display": "ITK National Pathology"
                },
                "receiver": {
                    "reference": "urn:uuid:49ef164e-235d-461f-9b97-ed8cf9675cb4"
                },
                "sender": {
                    "reference": "urn:uuid:8758015f-e7a6-473e-b7d2-d3707ad1a4a3"
                },
                "timestamp": "2010-03-01T17:51:00.000+00:00",
                "source": {
                    "endpoint": "lab_results_mailbox"
                },
                "responsible": {
                    "reference": "urn:uuid:8758015f-e7a6-473e-b7d2-d3707ad1a4a3"
                },
                "focus": [
                    {
                        "reference": "urn:uuid:163fde75-ec53-4ab5-8a17-3ec3b5460aa2"
                    }
                ]
            }
        },
        {
            "fullUrl": "urn:uuid:96df7a36-bb98-4b25-b271-95a8c74b1499",
            "resource": {
                "resourceType": "Patient",
                "id": "96df7a36-bb98-4b25-b271-95a8c74b1499",
                "meta": {
                    "profile": [
                        "https://fhir.hl7.org.uk/STU3/StructureDefinition/CareConnect-Patient-1"
                    ]
                },
                "identifier": [
                    {
                        "id": "Z77553311"
                    }
                ],
                "name": [
                    {
                        "use": "official",
                        "family": "SPRINGATE",
                        "given": [
                            "SYDNEY"
                        ]
                    }
                ],
                "birthDate": "1962-11-01",
                "address": [
                    {
                        "line": [
                            "FLAT1",
                            "1 LUMBY",
                            "PUDSEY",
                            "LEEDS"
                        ],
                        "postalCode": "LS25 5PR"
                    }
                ]
            }
        },
        {
            "fullUrl": "urn:uuid:ff4c3739-9c88-4761-894a-211e333de2eb",
            "resource": {
                "resourceType": "Practitioner",
                "id": "ff4c3739-9c88-4761-894a-211e333de2eb",
                "meta": {
                    "profile": [
                        "https://fhir.hl7.org.uk/STU3/StructureDefinition/CareConnect-Practitioner-1"
                    ]
                },
                "identifier": [
                    {
                        "value": "G3380314"
                    }
                ],
                "name": [
                    {
                        "text": "SCOTT"
                    }
                ]
            }
        },
        {
            "fullUrl": "urn:uuid:49ef164e-235d-461f-9b97-ed8cf9675cb4",
            "resource": {
                "resourceType": "Organization",
                "id": "49ef164e-235d-461f-9b97-ed8cf9675cb4",
                "meta": {
                    "profile": [
                        "https://fhir.hl7.org.uk/STU3/StructureDefinition/CareConnect-Organization-1"
                    ]
                }
            }
        },
        {
            "fullUrl": "urn:uuid:a0c0b1ad-b4a8-4d0d-953c-5734bb83c557",
            "resource": {
                "resourceType": "Practitioner",
                "id": "a0c0b1ad-b4a8-4d0d-953c-5734bb83c557",
                "meta": {
                    "profile": [
                        "https://fhir.hl7.org.uk/STU3/StructureDefinition/CareConnect-Practitioner-1"
                    ]
                }
            }
        },
        {
            "fullUrl": "urn:uuid:8758015f-e7a6-473e-b7d2-d3707ad1a4a3",
            "resource": {
                "resourceType": "Organization",
                "id": "8758015f-e7a6-473e-b7d2-d3707ad1a4a3",
                "meta": {
                    "profile": [
                        "https://fhir.hl7.org.uk/STU3/StructureDefinition/CareConnect-Organization-1"
                    ]
                },
                "type": [
                    {
                        "coding": [
                            {
                                "code": "dept",
                                "display": "Haematology Dept."
                            }
                        ]
                    }
                ],
                "name": "ST JAMES'S UNIVERSITY HOSPITAL"
            }
        },
        {
            "fullUrl": "urn:uuid:ffc49c2d-1720-4df0-abf9-063b223fbac0",
            "resource": {
                "resourceType": "ProcedureRequest",
                "id": "ffc49c2d-1720-4df0-abf9-063b223fbac0",
                "meta": {
                    "profile": [
                        "https://fhir.hl7.org.uk/STU3/StructureDefinition/CareConnect-ProcedureRequest-1"
                    ]
                },
                "status": "unknown",
                "intent": "order",
                "code": {
                    "coding": [
                        {
                            "system": "http://snomed.info/sct",
                            "code": "15220000",
                            "display": "Laboratory test (procedure)"
                        }
                    ]
                },
                "subject": {
                    "reference": "urn:uuid:96df7a36-bb98-4b25-b271-95a8c74b1499"
                },
                "requester": {
                    "agent": {
                        "reference": "urn:uuid:ff4c3739-9c88-4761-894a-211e333de2eb"
                    },
                    "onBehalfOf": {
                        "reference": "urn:uuid:49ef164e-235d-461f-9b97-ed8cf9675cb4"
                    }
                },
                "performer": {
                    "reference": "urn:uuid:a0c0b1ad-b4a8-4d0d-953c-5734bb83c557"
                },
                "note": [
                    {
                        "text": "ON AZATHIOPRINE"
                    }
                ]
            }
        },
        {
            "fullUrl": "urn:uuid:163fde75-ec53-4ab5-8a17-3ec3b5460aa2",
            "resource": {
                "resourceType": "DiagnosticReport",
                "id": "163fde75-ec53-4ab5-8a17-3ec3b5460aa2",
                "meta": {
                    "profile": [
                        "https://fhir.hl7.org.uk/STU3/StructureDefinition/CareConnect-DiagnosticReport-1"
                    ]
                },
                "identifier": [
                    {
                        "system": "https://tools.ietf.org/html/rfc4122",
                        "value": "15/CH000041O/200010191704"
                    }
                ],
                "basedOn": [
                    {
                        "reference": "urn:uuid:ffc49c2d-1720-4df0-abf9-063b223fbac0"
                    }
                ],
                "status": "unknown",
                "code": {
                    "coding": [
                        {
                            "system": "http://snomed.info/sct",
                            "code": "721981007",
                            "display": "Diagnostic studies report"
                        }
                    ]
                },
                "subject": {
                    "reference": "urn:uuid:96df7a36-bb98-4b25-b271-95a8c74b1499"
                },
                "issued": "2010-02-25T15:41:00.000+00:00",
                "performer": [
                    {
                        "actor": {
                            "reference": "urn:uuid:8758015f-e7a6-473e-b7d2-d3707ad1a4a3"
                        }
                    },
                    {
                        "actor": {
                            "reference": "urn:uuid:a0c0b1ad-b4a8-4d0d-953c-5734bb83c557"
                        }
                    }
                ],
                "specimen": [
                    {
                        "reference": "urn:uuid:f5e6d7d7-d386-4faa-ae88-d15484272a50"
                    }
                ],
                "result": [
                    {
                        "reference": "urn:uuid:2ec6d231-6020-4569-a885-e85e22446533"
                    },
                    {
                        "reference": "urn:uuid:2ed175c1-f945-4c40-9e41-35e1fafde368"
                    },
                    {
                        "reference": "urn:uuid:fd3d7f56-8e87-43df-94dc-67e34b07b80b"
                    },
                    {
                        "reference": "urn:uuid:5d658505-6d6b-4626-a2dd-a1dd1dc66a64"
                    },
                    {
                        "reference": "urn:uuid:54668635-8e93-41a8-a4ff-2747c8eb4aa4"
                    },
                    {
                        "reference": "urn:uuid:075a9218-bd46-424c-841c-9611b7614f6d"
                    },
                    {
                        "reference": "urn:uuid:0e28a271-a59b-4064-babc-f832cf0bc04f"
                    },
                    {
                        "reference": "urn:uuid:8ba2518d-5bcd-4b69-b721-e16f8d4adea2"
                    },
                    {
                        "reference": "urn:uuid:760af12e-f863-49c1-bac9-5f420c192910"
                    },
                    {
                        "reference": "urn:uuid:189c8a78-4dc8-4917-9fe2-370a71158081"
                    },
                    {
                        "reference": "urn:uuid:a9b6b275-39bb-42e0-ba4d-32d44c6d1ec4"
                    },
                    {
                        "reference": "urn:uuid:be766dec-a1f9-4f3d-be45-41412b7b96b2"
                    },
                    {
                        "reference": "urn:uuid:3422254b-9d05-4d9f-b1db-95be89d93a9e"
                    },
                    {
                        "reference": "urn:uuid:ae38f84e-a2c7-49e7-96a5-731885219397"
                    }
                ]
            }
        },
        {
            "fullUrl": "urn:uuid:f5e6d7d7-d386-4faa-ae88-d15484272a50",
            "resource": {
                "resourceType": "Specimen",
                "id": "f5e6d7d7-d386-4faa-ae88-d15484272a50",
                "meta": {
                    "profile": [
                        "https://fhir.hl7.org.uk/STU3/StructureDefinition/CareConnect-Specimen-1"
                    ]
                },
                "accessionIdentifier": {
                    "value": "CH000041OC"
                },
                "type": {
                    "coding": [
                        {
                            "display": "VENOUS BLOOD"
                        }
                    ]
                },
                "subject": {
                    "reference": "urn:uuid:96df7a36-bb98-4b25-b271-95a8c74b1499"
                },
                "collection": {
                    "collectedDateTime": "2010-02-23"
                }
            }
        },
        {
            "fullUrl": "urn:uuid:2ec6d231-6020-4569-a885-e85e22446533",
            "resource": {
                "resourceType": "Observation",
                "id": "2ec6d231-6020-4569-a885-e85e22446533",
                "meta": {
                    "profile": [
                        "https://fhir.hl7.org.uk/STU3/StructureDefinition/CareConnect-Observation-1"
                    ]
                },
                "status": "unknown",
                "code": {
                    "coding": [
                        {
                            "system": "http://read.info/readv2",
                            "code": "424..",
                            "display": "Full blood count - FBC"
                        }
                    ]
                },
                "subject": {
                    "reference": "urn:uuid:96df7a36-bb98-4b25-b271-95a8c74b1499"
                },
                "performer": [
                    {
                        "reference": "urn:uuid:8758015f-e7a6-473e-b7d2-d3707ad1a4a3"
                    },
                    {
                        "reference": "urn:uuid:a0c0b1ad-b4a8-4d0d-953c-5734bb83c557"
                    }
                ],
                "specimen": {
                    "reference": "urn:uuid:f5e6d7d7-d386-4faa-ae88-d15484272a50"
                },
                "related": [
                    {
                        "type": "has-member",
                        "target": {
                            "reference": "urn:uuid:2ed175c1-f945-4c40-9e41-35e1fafde368"
                        }
                    },
                    {
                        "type": "has-member",
                        "target": {
                            "reference": "urn:uuid:fd3d7f56-8e87-43df-94dc-67e34b07b80b"
                        }
                    },
                    {
                        "type": "has-member",
                        "target": {
                            "reference": "urn:uuid:5d658505-6d6b-4626-a2dd-a1dd1dc66a64"
                        }
                    },
                    {
                        "type": "has-member",
                        "target": {
                            "reference": "urn:uuid:54668635-8e93-41a8-a4ff-2747c8eb4aa4"
                        }
                    },
                    {
                        "type": "has-member",
                        "target": {
                            "reference": "urn:uuid:075a9218-bd46-424c-841c-9611b7614f6d"
                        }
                    },
                    {
                        "type": "has-member",
                        "target": {
                            "reference": "urn:uuid:0e28a271-a59b-4064-babc-f832cf0bc04f"
                        }
                    },
                    {
                        "type": "has-member",
                        "target": {
                            "reference": "urn:uuid:8ba2518d-5bcd-4b69-b721-e16f8d4adea2"
                        }
                    },
                    {
                        "type": "has-member",
                        "target": {
                            "reference": "urn:uuid:760af12e-f863-49c1-bac9-5f420c192910"
                        }
                    },
                    {
                        "type": "has-member",
                        "target": {
                            "reference": "urn:uuid:189c8a78-4dc8-4917-9fe2-370a71158081"
                        }
                    },
                    {
                        "type": "has-member",
                        "target": {
                            "reference": "urn:uuid:a9b6b275-39bb-42e0-ba4d-32d44c6d1ec4"
                        }
                    },
                    {
                        "type": "has-member",
                        "target": {
                            "reference": "urn:uuid:be766dec-a1f9-4f3d-be45-41412b7b96b2"
                        }
                    },
                    {
                        "type": "has-member",
                        "target": {
                            "reference": "urn:uuid:3422254b-9d05-4d9f-b1db-95be89d93a9e"
                        }
                    },
                    {
                        "type": "has-member",
                        "target": {
                            "reference": "urn:uuid:ae38f84e-a2c7-49e7-96a5-731885219397"
                        }
                    }
                ]
            }
        },
        {
            "fullUrl": "urn:uuid:2ed175c1-f945-4c40-9e41-35e1fafde368",
            "resource": {
                "resourceType": "Observation",
                "id": "2ed175c1-f945-4c40-9e41-35e1fafde368",
                "meta": {
                    "profile": [
                        "https://fhir.hl7.org.uk/STU3/StructureDefinition/CareConnect-Observation-1"
                    ]
                },
                "status": "unknown",
                "code": {
                    "coding": [
                        {
                            "system": "http://read.info/readv2",
                            "code": "42H..",
                            "display": "Total white cell count"
                        }
                    ]
                },
                "subject": {
                    "reference": "urn:uuid:96df7a36-bb98-4b25-b271-95a8c74b1499"
                },
                "performer": [
                    {
                        "reference": "urn:uuid:8758015f-e7a6-473e-b7d2-d3707ad1a4a3"
                    },
                    {
                        "reference": "urn:uuid:a0c0b1ad-b4a8-4d0d-953c-5734bb83c557"
                    }
                ],
                "valueQuantity": {
                    "value": 7.6,
                    "unit": "10*9/L"
                },
                "specimen": {
                    "reference": "urn:uuid:f5e6d7d7-d386-4faa-ae88-d15484272a50"
                },
                "referenceRange": [
                    {
                        "low": {
                            "value": 4.0
                        },
                        "high": {
                            "value": 11.0
                        }
                    }
                ]
            }
        },
        {
            "fullUrl": "urn:uuid:fd3d7f56-8e87-43df-94dc-67e34b07b80b",
            "resource": {
                "resourceType": "Observation",
                "id": "fd3d7f56-8e87-43df-94dc-67e34b07b80b",
                "meta": {
                    "profile": [
                        "https://fhir.hl7.org.uk/STU3/StructureDefinition/CareConnect-Observation-1"
                    ]
                },
                "status": "unknown",
                "code": {
                    "coding": [
                        {
                            "system": "http://read.info/readv2",
                            "code": "426..",
                            "display": "Red blood cell (RBC) count"
                        }
                    ]
                },
                "subject": {
                    "reference": "urn:uuid:96df7a36-bb98-4b25-b271-95a8c74b1499"
                },
                "performer": [
                    {
                        "reference": "urn:uuid:8758015f-e7a6-473e-b7d2-d3707ad1a4a3"
                    },
                    {
                        "reference": "urn:uuid:a0c0b1ad-b4a8-4d0d-953c-5734bb83c557"
                    }
                ],
                "valueQuantity": {
                    "value": 2.84,
                    "unit": "10*12/L"
                },
                "interpretation": {
                    "coding": [
                        {
                            "system": "http://hl7.org/fhir/v2/0078",
                            "code": "L",
                            "display": "Low"
                        }
                    ]
                },
                "specimen": {
                    "reference": "urn:uuid:f5e6d7d7-d386-4faa-ae88-d15484272a50"
                },
                "referenceRange": [
                    {
                        "low": {
                            "value": 3.8
                        },
                        "high": {
                            "value": 5.4
                        }
                    }
                ]
            }
        },
        {
            "fullUrl": "urn:uuid:5d658505-6d6b-4626-a2dd-a1dd1dc66a64",
            "resource": {
                "resourceType": "Observation",
                "id": "5d658505-6d6b-4626-a2dd-a1dd1dc66a64",
                "meta": {
                    "profile": [
                        "https://fhir.hl7.org.uk/STU3/StructureDefinition/CareConnect-Observation-1"
                    ]
                },
                "status": "unknown",
                "code": {
                    "coding": [
                        {
                            "system": "http://read.info/readv2",
                            "code": "423..",
                            "display": "Haemoglobin estimation"
                        }
                    ]
                },
                "subject": {
                    "reference": "urn:uuid:96df7a36-bb98-4b25-b271-95a8c74b1499"
                },
                "performer": [
                    {
                        "reference": "urn:uuid:8758015f-e7a6-473e-b7d2-d3707ad1a4a3"
                    },
                    {
                        "reference": "urn:uuid:a0c0b1ad-b4a8-4d0d-953c-5734bb83c557"
                    }
                ],
                "valueQuantity": {
                    "value": 11.0,
                    "unit": "g/dL"
                },
                "specimen": {
                    "reference": "urn:uuid:f5e6d7d7-d386-4faa-ae88-d15484272a50"
                },
                "referenceRange": [
                    {
                        "low": {
                            "value": 10.5
                        },
                        "high": {
                            "value": 15.0
                        }
                    }
                ]
            }
        },
        {
            "fullUrl": "urn:uuid:54668635-8e93-41a8-a4ff-2747c8eb4aa4",
            "resource": {
                "resourceType": "Observation",
                "id": "54668635-8e93-41a8-a4ff-2747c8eb4aa4",
                "meta": {
                    "profile": [
                        "https://fhir.hl7.org.uk/STU3/StructureDefinition/CareConnect-Observation-1"
                    ]
                },
                "status": "unknown",
                "code": {
                    "coding": [
                        {
                            "system": "http://read.info/readv2",
                            "code": "4258.",
                            "display": "Haematocrit"
                        }
                    ]
                },
                "subject": {
                    "reference": "urn:uuid:96df7a36-bb98-4b25-b271-95a8c74b1499"
                },
                "performer": [
                    {
                        "reference": "urn:uuid:8758015f-e7a6-473e-b7d2-d3707ad1a4a3"
                    },
                    {
                        "reference": "urn:uuid:a0c0b1ad-b4a8-4d0d-953c-5734bb83c557"
                    }
                ],
                "valueQuantity": {
                    "value": 0.315,
                    "unit": "%"
                },
                "interpretation": {
                    "coding": [
                        {
                            "system": "http://hl7.org/fhir/v2/0078",
                            "code": "L",
                            "display": "Low"
                        }
                    ]
                },
                "specimen": {
                    "reference": "urn:uuid:f5e6d7d7-d386-4faa-ae88-d15484272a50"
                },
                "referenceRange": [
                    {
                        "low": {
                            "value": 0.370
                        },
                        "high": {
                            "value": 0.470
                        }
                    }
                ]
            }
        },
        {
            "fullUrl": "urn:uuid:075a9218-bd46-424c-841c-9611b7614f6d",
            "resource": {
                "resourceType": "Observation",
                "id": "075a9218-bd46-424c-841c-9611b7614f6d",
                "meta": {
                    "profile": [
                        "https://fhir.hl7.org.uk/STU3/StructureDefinition/CareConnect-Observation-1"
                    ]
                },
                "status": "unknown",
                "code": {
                    "coding": [
                        {
                            "system": "http://read.info/readv2",
                            "code": "42A..",
                            "display": "Mean corpuscular volume (MCV)"
                        }
                    ]
                },
                "subject": {
                    "reference": "urn:uuid:96df7a36-bb98-4b25-b271-95a8c74b1499"
                },
                "performer": [
                    {
                        "reference": "urn:uuid:8758015f-e7a6-473e-b7d2-d3707ad1a4a3"
                    },
                    {
                        "reference": "urn:uuid:a0c0b1ad-b4a8-4d0d-953c-5734bb83c557"
                    }
                ],
                "valueQuantity": {
                    "value": 111.1,
                    "unit": "fL"
                },
                "interpretation": {
                    "coding": [
                        {
                            "system": "http://hl7.org/fhir/v2/0078",
                            "code": "H",
                            "display": "High"
                        }
                    ]
                },
                "specimen": {
                    "reference": "urn:uuid:f5e6d7d7-d386-4faa-ae88-d15484272a50"
                },
                "referenceRange": [
                    {
                        "low": {
                            "value": 76
                        },
                        "high": {
                            "value": 100
                        }
                    }
                ]
            }
        },
        {
            "fullUrl": "urn:uuid:0e28a271-a59b-4064-babc-f832cf0bc04f",
            "resource": {
                "resourceType": "Observation",
                "id": "0e28a271-a59b-4064-babc-f832cf0bc04f",
                "meta": {
                    "profile": [
                        "https://fhir.hl7.org.uk/STU3/StructureDefinition/CareConnect-Observation-1"
                    ]
                },
                "status": "unknown",
                "code": {
                    "coding": [
                        {
                            "system": "http://read.info/readv2",
                            "code": "428..",
                            "display": "Mean corpusc. haemoglobin(MCH)"
                        }
                    ]
                },
                "subject": {
                    "reference": "urn:uuid:96df7a36-bb98-4b25-b271-95a8c74b1499"
                },
                "performer": [
                    {
                        "reference": "urn:uuid:8758015f-e7a6-473e-b7d2-d3707ad1a4a3"
                    },
                    {
                        "reference": "urn:uuid:a0c0b1ad-b4a8-4d0d-953c-5734bb83c557"
                    }
                ],
                "valueQuantity": {
                    "value": 38.7,
                    "unit": "pg"
                },
                "interpretation": {
                    "coding": [
                        {
                            "system": "http://hl7.org/fhir/v2/0078",
                            "code": "H",
                            "display": "High"
                        }
                    ]
                },
                "specimen": {
                    "reference": "urn:uuid:f5e6d7d7-d386-4faa-ae88-d15484272a50"
                },
                "referenceRange": [
                    {
                        "low": {
                            "value": 26
                        },
                        "high": {
                            "value": 32
                        }
                    }
                ]
            }
        },
        {
            "fullUrl": "urn:uuid:8ba2518d-5bcd-4b69-b721-e16f8d4adea2",
            "resource": {
                "resourceType": "Observation",
                "id": "8ba2518d-5bcd-4b69-b721-e16f8d4adea2",
                "meta": {
                    "profile": [
                        "https://fhir.hl7.org.uk/STU3/StructureDefinition/CareConnect-Observation-1"
                    ]
                },
                "status": "unknown",
                "code": {
                    "coding": [
                        {
                            "system": "http://read.info/readv2",
                            "code": "429..",
                            "display": "Mean corpusc. Hb. conc. (MCHC)"
                        }
                    ]
                },
                "subject": {
                    "reference": "urn:uuid:96df7a36-bb98-4b25-b271-95a8c74b1499"
                },
                "performer": [
                    {
                        "reference": "urn:uuid:8758015f-e7a6-473e-b7d2-d3707ad1a4a3"
                    },
                    {
                        "reference": "urn:uuid:a0c0b1ad-b4a8-4d0d-953c-5734bb83c557"
                    }
                ],
                "valueQuantity": {
                    "value": 34.8,
                    "unit": "g/dL"
                },
                "specimen": {
                    "reference": "urn:uuid:f5e6d7d7-d386-4faa-ae88-d15484272a50"
                },
                "referenceRange": [
                    {
                        "low": {
                            "value": 30
                        },
                        "high": {
                            "value": 37
                        }
                    }
                ]
            }
        },
        {
            "fullUrl": "urn:uuid:760af12e-f863-49c1-bac9-5f420c192910",
            "resource": {
                "resourceType": "Observation",
                "id": "760af12e-f863-49c1-bac9-5f420c192910",
                "meta": {
                    "profile": [
                        "https://fhir.hl7.org.uk/STU3/StructureDefinition/CareConnect-Observation-1"
                    ]
                },
                "status": "unknown",
                "code": {
                    "coding": [
                        {
                            "system": "http://read.info/readv2",
                            "code": "42P..",
                            "display": "Platelet count"
                        }
                    ]
                },
                "subject": {
                    "reference": "urn:uuid:96df7a36-bb98-4b25-b271-95a8c74b1499"
                },
                "performer": [
                    {
                        "reference": "urn:uuid:8758015f-e7a6-473e-b7d2-d3707ad1a4a3"
                    },
                    {
                        "reference": "urn:uuid:a0c0b1ad-b4a8-4d0d-953c-5734bb83c557"
                    }
                ],
                "valueQuantity": {
                    "value": 220,
                    "unit": "10*9/L"
                },
                "specimen": {
                    "reference": "urn:uuid:f5e6d7d7-d386-4faa-ae88-d15484272a50"
                },
                "referenceRange": [
                    {
                        "low": {
                            "value": 150
                        },
                        "high": {
                            "value": 600
                        }
                    }
                ]
            }
        },
        {
            "fullUrl": "urn:uuid:189c8a78-4dc8-4917-9fe2-370a71158081",
            "resource": {
                "resourceType": "Observation",
                "id": "189c8a78-4dc8-4917-9fe2-370a71158081",
                "meta": {
                    "profile": [
                        "https://fhir.hl7.org.uk/STU3/StructureDefinition/CareConnect-Observation-1"
                    ]
                },
                "status": "unknown",
                "code": {
                    "coding": [
                        {
                            "system": "http://read.info/readv2",
                            "code": "42J..",
                            "display": "Neutrophil count"
                        }
                    ]
                },
                "subject": {
                    "reference": "urn:uuid:96df7a36-bb98-4b25-b271-95a8c74b1499"
                },
                "performer": [
                    {
                        "reference": "urn:uuid:8758015f-e7a6-473e-b7d2-d3707ad1a4a3"
                    },
                    {
                        "reference": "urn:uuid:a0c0b1ad-b4a8-4d0d-953c-5734bb83c557"
                    }
                ],
                "valueQuantity": {
                    "value": 7.4,
                    "unit": "10*9/L"
                },
                "specimen": {
                    "reference": "urn:uuid:f5e6d7d7-d386-4faa-ae88-d15484272a50"
                },
                "referenceRange": [
                    {
                        "low": {
                            "value": 2.0
                        },
                        "high": {
                            "value": 7.5
                        }
                    }
                ]
            }
        },
        {
            "fullUrl": "urn:uuid:a9b6b275-39bb-42e0-ba4d-32d44c6d1ec4",
            "resource": {
                "resourceType": "Observation",
                "id": "a9b6b275-39bb-42e0-ba4d-32d44c6d1ec4",
                "meta": {
                    "profile": [
                        "https://fhir.hl7.org.uk/STU3/StructureDefinition/CareConnect-Observation-1"
                    ]
                },
                "status": "unknown",
                "code": {
                    "coding": [
                        {
                            "system": "http://read.info/readv2",
                            "code": "42M..",
                            "display": "Lymphocyte count"
                        }
                    ]
                },
                "subject": {
                    "reference": "urn:uuid:96df7a36-bb98-4b25-b271-95a8c74b1499"
                },
                "performer": [
                    {
                        "reference": "urn:uuid:8758015f-e7a6-473e-b7d2-d3707ad1a4a3"
                    },
                    {
                        "reference": "urn:uuid:a0c0b1ad-b4a8-4d0d-953c-5734bb83c557"
                    }
                ],
                "valueQuantity": {
                    "value": 0.1,
                    "unit": "10*9/L"
                },
                "specimen": {
                    "reference": "urn:uuid:f5e6d7d7-d386-4faa-ae88-d15484272a50"
                },
                "referenceRange": [
                    {
                        "low": {
                            "value": 1.0
                        },
                        "high": {
                            "value": 4.0
                        }
                    }
                ]
            }
        },
        {
            "fullUrl": "urn:uuid:be766dec-a1f9-4f3d-be45-41412b7b96b2",
            "resource": {
                "resourceType": "Observation",
                "id": "be766dec-a1f9-4f3d-be45-41412b7b96b2",
                "meta": {
                    "profile": [
                        "https://fhir.hl7.org.uk/STU3/StructureDefinition/CareConnect-Observation-1"
                    ]
                },
                "status": "unknown",
                "code": {
                    "coding": [
                        {
                            "system": "http://read.info/readv2",
                            "code": "42N..",
                            "display": "Monocyte count"
                        }
                    ]
                },
                "subject": {
                    "reference": "urn:uuid:96df7a36-bb98-4b25-b271-95a8c74b1499"
                },
                "performer": [
                    {
                        "reference": "urn:uuid:8758015f-e7a6-473e-b7d2-d3707ad1a4a3"
                    },
                    {
                        "reference": "urn:uuid:a0c0b1ad-b4a8-4d0d-953c-5734bb83c557"
                    }
                ],
                "valueQuantity": {
                    "value": 0.1,
                    "unit": "10*9/L"
                },
                "specimen": {
                    "reference": "urn:uuid:f5e6d7d7-d386-4faa-ae88-d15484272a50"
                },
                "referenceRange": [
                    {
                        "low": {
                            "value": 0.2
                        },
                        "high": {
                            "value": 1.0
                        }
                    }
                ]
            }
        },
        {
            "fullUrl": "urn:uuid:3422254b-9d05-4d9f-b1db-95be89d93a9e",
            "resource": {
                "resourceType": "Observation",
                "id": "3422254b-9d05-4d9f-b1db-95be89d93a9e",
                "meta": {
                    "profile": [
                        "https://fhir.hl7.org.uk/STU3/StructureDefinition/CareConnect-Observation-1"
                    ]
                },
                "status": "unknown",
                "code": {
                    "coding": [
                        {
                            "system": "http://read.info/readv2",
                            "code": "42K..",
                            "display": "Eosinophil count"
                        }
                    ]
                },
                "subject": {
                    "reference": "urn:uuid:96df7a36-bb98-4b25-b271-95a8c74b1499"
                },
                "performer": [
                    {
                        "reference": "urn:uuid:8758015f-e7a6-473e-b7d2-d3707ad1a4a3"
                    },
                    {
                        "reference": "urn:uuid:a0c0b1ad-b4a8-4d0d-953c-5734bb83c557"
                    }
                ],
                "valueQuantity": {
                    "value": 0.1,
                    "comparator": "<",
                    "unit": "10*9/L"
                },
                "specimen": {
                    "reference": "urn:uuid:f5e6d7d7-d386-4faa-ae88-d15484272a50"
                },
                "referenceRange": [
                    {
                        "low": {
                            "value": 0
                        },
                        "high": {
                            "value": 0.6
                        }
                    }
                ]
            }
        },
        {
            "fullUrl": "urn:uuid:ae38f84e-a2c7-49e7-96a5-731885219397",
            "resource": {
                "resourceType": "Observation",
                "id": "ae38f84e-a2c7-49e7-96a5-731885219397",
                "meta": {
                    "profile": [
                        "https://fhir.hl7.org.uk/STU3/StructureDefinition/CareConnect-Observation-1"
                    ]
                },
                "status": "unknown",
                "code": {
                    "coding": [
                        {
                            "system": "http://read.info/readv2",
                            "code": "42L..",
                            "display": "Basophil count"
                        }
                    ]
                },
                "subject": {
                    "reference": "urn:uuid:96df7a36-bb98-4b25-b271-95a8c74b1499"
                },
                "performer": [
                    {
                        "reference": "urn:uuid:8758015f-e7a6-473e-b7d2-d3707ad1a4a3"
                    },
                    {
                        "reference": "urn:uuid:a0c0b1ad-b4a8-4d0d-953c-5734bb83c557"
                    }
                ],
                "valueQuantity": {
                    "value": 0.0,
                    "unit": "10*9/L"
                },
                "specimen": {
                    "reference": "urn:uuid:f5e6d7d7-d386-4faa-ae88-d15484272a50"
                },
                "referenceRange": [
                    {
                        "low": {
                            "value": 0.00
                        },
                        "high": {
                            "value": 0.3
                        }
                    }
                ]
            }
        }
    ]
}