{
    "resourceType": "Bundle",
    "id": "b7751799-279b-4b70-b822-2b046c9aab39",
    "meta": {
        "lastUpdated": "2021-04-27T13:32:25.358+01:00",
        "profile": [
            "https://fhir.nhs.uk/STU3/StructureDefinition/ITK-Message-Bundle-1"
        ]
    },
    "identifier": {
        "system": "https://tools.ietf.org/html/rfc4122",
        "value": "5ceed3e2-5d59-4b2c-81e6-ebba4dd78807"
    },
    "type": "message",
    "entry": [
        {
            "fullUrl": "urn:uuid:058d5431-3360-4b80-aafc-ea3b390b725a",
            "resource": {
                "resourceType": "MessageHeader",
                "id": "058d5431-3360-4b80-aafc-ea3b390b725a",
                "meta": {
                    "profile": [
                        "https://fhir.nhs.uk/STU3/StructureDefinition/ITK-MessageHeader-2"
                    ]
                },
                "extension": [
                    {
                        "url": "https://fhir.nhs.uk/STU3/StructureDefinition/Extension-ITK-MessageHandling-2",
                        "extension": [
                            {
                                "url": "BusAckRequested",
                                "valueBoolean": true
                            },
                            {
                                "url": "InfAckRequested",
                                "valueBoolean": true
                            },
                            {
                                "url": "RecipientType",
                                "valueCoding": {
                                    "system": "https://fhir.nhs.uk/STU3/CodeSystem/ITK-RecipientType-1",
                                    "code": "FA",
                                    "display": "For Action"
                                }
                            },
                            {
                                "url": "SenderReference",
                                "valueString": "None"
                            },
                            {
                                "url": "LocalExtension",
                                "valueString": "None"
                            }
                        ]
                    }
                ],
                "event": {
                    "system": "https://fhir.nhs.uk/STU3/CodeSystem/ITK-MessageEvent-2",
                    "code": "ITK012M",
                    "display": "ITK National Pathology"
                },
                "receiver": {
                    "reference": "urn:uuid:2dd161a4-957b-4f04-a297-3f3fc4b54c11"
                },
                "sender": {
                    "reference": "urn:uuid:885a15de-26ea-4a27-899a-7bd3fece3dfe"
                },
                "timestamp": "2010-03-01T17:51:00.000+00:00",
                "source": {
                    "endpoint": "lab_results_mailbox"
                },
                "responsible": {
                    "reference": "urn:uuid:885a15de-26ea-4a27-899a-7bd3fece3dfe"
                },
                "focus": [
                    {
                        "reference": "urn:uuid:46a93e09-59fc-4702-8ce5-b1e48ae1f5f1"
                    }
                ]
            }
        },
        {
            "fullUrl": "urn:uuid:9cd8d8e0-b4a5-4caa-b60a-a4908a4a9556",
            "resource": {
                "resourceType": "Patient",
                "id": "9cd8d8e0-b4a5-4caa-b60a-a4908a4a9556",
                "meta": {
                    "profile": [
                        "https://fhir.hl7.org.uk/STU3/StructureDefinition/CareConnect-Patient-1"
                    ]
                },
                "identifier": [
                    {
                        "extension": [
                            {
                                "url": "https://fhir.hl7.org.uk/STU3/StructureDefinition/Extension-CareConnect-NHSNumberVerificationStatus-1",
                                "valueCodeableConcept": {
                                    "coding": [
                                        {
                                            "system": "https://fhir.hl7.org.uk/STU3/CodeSystem/CareConnect-NHSNumberVerificationStatus-1",
                                            "code": "01",
                                            "display": "Number present and verified"
                                        }
                                    ]
                                }
                            }
                        ],
                        "system": "https://fhir.nhs.uk/Id/nhs-number",
                        "value": "9435492908"
                    }
                ],
                "name": [
                    {
                        "use": "official",
                        "family": "TALEBI",
                        "given": [
                            "WASEEMA"
                        ]
                    }
                ],
                "gender": "female",
                "birthDate": "1961-08-14",
                "address": [
                    {
                        "line": [
                            "FLAT1",
                            "29 COPPICE WOOD GROVE",
                            "LEEDS"
                        ],
                        "postalCode": "LS20 9JU"
                    }
                ]
            }
        },
        {
            "fullUrl": "urn:uuid:a6d481f4-e06a-4845-abd1-275e54d0b750",
            "resource": {
                "resourceType": "Practitioner",
                "id": "a6d481f4-e06a-4845-abd1-275e54d0b750",
                "meta": {
                    "profile": [
                        "https://fhir.hl7.org.uk/STU3/StructureDefinition/CareConnect-Practitioner-1"
                    ]
                },
                "identifier": [
                    {
                        "system": "https://fhir.nhs.uk/Id/sds-user-id",
                        "value": "G3380314"
                    }
                ],
                "name": [
                    {
                        "text": "SCOTT"
                    }
                ]
            }
        },
        {
            "fullUrl": "urn:uuid:2dd161a4-957b-4f04-a297-3f3fc4b54c11",
            "resource": {
                "resourceType": "Organization",
                "id": "2dd161a4-957b-4f04-a297-3f3fc4b54c11",
                "meta": {
                    "profile": [
                        "https://fhir.hl7.org.uk/STU3/StructureDefinition/CareConnect-Organization-1"
                    ]
                }
            }
        },
        {
            "fullUrl": "urn:uuid:41a4a46e-8b48-4d10-bb13-4a8e04de6056",
            "resource": {
                "resourceType": "Practitioner",
                "id": "41a4a46e-8b48-4d10-bb13-4a8e04de6056",
                "meta": {
                    "profile": [
                        "https://fhir.hl7.org.uk/STU3/StructureDefinition/CareConnect-Practitioner-1"
                    ]
                }
            }
        },
        {
            "fullUrl": "urn:uuid:885a15de-26ea-4a27-899a-7bd3fece3dfe",
            "resource": {
                "resourceType": "Organization",
                "id": "885a15de-26ea-4a27-899a-7bd3fece3dfe",
                "meta": {
                    "profile": [
                        "https://fhir.hl7.org.uk/STU3/StructureDefinition/CareConnect-Organization-1"
                    ]
                },
                "type": [
                    {
                        "coding": [
                            {
                                "code": "dept",
                                "display": "HAEMATOLOGY"
                            }
                        ]
                    }
                ],
                "name": "ST JAMES'S UNIVERSITY HOSPITAL"
            }
        },
        {
            "fullUrl": "urn:uuid:348f7437-7e21-4ddc-91ae-72787a1666bd",
            "resource": {
                "resourceType": "ProcedureRequest",
                "id": "348f7437-7e21-4ddc-91ae-72787a1666bd",
                "meta": {
                    "profile": [
                        "https://fhir.hl7.org.uk/STU3/StructureDefinition/CareConnect-ProcedureRequest-1"
                    ]
                },
                "status": "unknown",
                "intent": "order",
                "code": {
                    "text": "unknown"
                },
                "subject": {
                    "reference": "urn:uuid:9cd8d8e0-b4a5-4caa-b60a-a4908a4a9556"
                },
                "requester": {
                    "agent": {
                        "reference": "urn:uuid:a6d481f4-e06a-4845-abd1-275e54d0b750"
                    },
                    "onBehalfOf": {
                        "reference": "urn:uuid:2dd161a4-957b-4f04-a297-3f3fc4b54c11"
                    }
                },
                "performer": {
                    "reference": "urn:uuid:41a4a46e-8b48-4d10-bb13-4a8e04de6056"
                },
                "note": [
                    {
                        "text": "COELIAC"
                    }
                ]
            }
        },
        {
            "fullUrl": "urn:uuid:46a93e09-59fc-4702-8ce5-b1e48ae1f5f1",
            "resource": {
                "resourceType": "DiagnosticReport",
                "id": "46a93e09-59fc-4702-8ce5-b1e48ae1f5f1",
                "meta": {
                    "profile": [
                        "https://fhir.hl7.org.uk/STU3/StructureDefinition/CareConnect-DiagnosticReport-1"
                    ]
                },
                "identifier": [
                    {
                        "system": "https://tools.ietf.org/html/rfc4122",
                        "value": "15/CH000040N/200010191704"
                    }
                ],
                "basedOn": [
                    {
                        "reference": "urn:uuid:348f7437-7e21-4ddc-91ae-72787a1666bd"
                    }
                ],
                "status": "unknown",
                "code": {
                    "coding": [
                        {
                            "system": "http://snomed.info/sct",
                            "code": "721981007",
                            "display": "Diagnostic studies report"
                        }
                    ]
                },
                "subject": {
                    "reference": "urn:uuid:9cd8d8e0-b4a5-4caa-b60a-a4908a4a9556"
                },
                "issued": "2010-02-25T15:41:00.000+00:00",
                "performer": [
                    {
                        "actor": {
                            "reference": "urn:uuid:885a15de-26ea-4a27-899a-7bd3fece3dfe"
                        }
                    },
                    {
                        "actor": {
                            "reference": "urn:uuid:41a4a46e-8b48-4d10-bb13-4a8e04de6056"
                        }
                    }
                ],
                "specimen": [
                    {
                        "reference": "urn:uuid:aaa8e972-4a61-49c1-8966-f6ad94c7bfef"
                    }
                ],
                "result": [
                    {
                        "reference": "urn:uuid:7cb9ee13-5a7e-4e0f-ac70-7c0cb934168d"
                    }
                ]
            }
        },
        {
            "fullUrl": "urn:uuid:aaa8e972-4a61-49c1-8966-f6ad94c7bfef",
            "resource": {
                "resourceType": "Specimen",
                "id": "aaa8e972-4a61-49c1-8966-f6ad94c7bfef",
                "meta": {
                    "profile": [
                        "https://fhir.hl7.org.uk/STU3/StructureDefinition/CareConnect-Specimen-1"
                    ]
                },
                "accessionIdentifier": {
                    "system": "http://lab.acme.org/specimens/2011",
                    "value": "CH000040NB"
                },
                "type": {
                    "coding": [
                        {
                            "system": "http://snomed.info/sct",
                            "display": "VENOUS BLOOD"
                        }
                    ]
                },
                "subject": {
                    "reference": "urn:uuid:9cd8d8e0-b4a5-4caa-b60a-a4908a4a9556"
                }
            }
        },
        {
            "fullUrl": "urn:uuid:7cb9ee13-5a7e-4e0f-ac70-7c0cb934168d",
            "resource": {
                "resourceType": "Observation",
                "id": "7cb9ee13-5a7e-4e0f-ac70-7c0cb934168d",
                "meta": {
                    "profile": [
                        "https://fhir.hl7.org.uk/STU3/StructureDefinition/CareConnect-Observation-1"
                    ]
                },
                "status": "unknown",
                "code": {
                    "coding": [
                        {
                            "display": "B12/FOLATE"
                        }
                    ]
                },
                "subject": {
                    "reference": "urn:uuid:9cd8d8e0-b4a5-4caa-b60a-a4908a4a9556"
                },
                "performer": [
                    {
                        "reference": "urn:uuid:885a15de-26ea-4a27-899a-7bd3fece3dfe"
                    },
                    {
                        "reference": "urn:uuid:41a4a46e-8b48-4d10-bb13-4a8e04de6056"
                    }
                ],
                "comment": "Results repeated Low plasma Folate",
                "specimen": {
                    "reference": "urn:uuid:aaa8e972-4a61-49c1-8966-f6ad94c7bfef"
                },
                "related": [
                    {
                        "type": "has-member",
                        "target": {
                            "reference": "urn:uuid:8a3744fd-3fe8-4d13-825d-30d4d35f1f96"
                        }
                    },
                    {
                        "type": "has-member",
                        "target": {
                            "reference": "urn:uuid:3aad0f97-0679-4d4d-8fb2-d943faf2d583"
                        }
                    }
                ]
            }
        },
        {
            "fullUrl": "urn:uuid:8a3744fd-3fe8-4d13-825d-30d4d35f1f96",
            "resource": {
                "resourceType": "Observation",
                "id": "8a3744fd-3fe8-4d13-825d-30d4d35f1f96",
                "meta": {
                    "profile": [
                        "https://fhir.hl7.org.uk/STU3/StructureDefinition/CareConnect-Observation-1"
                    ]
                },
                "status": "unknown",
                "code": {
                    "coding": [
                        {
                            "system": "http://read.info/readv2",
                            "code": "42T..",
                            "display": "Serum vitamin B12"
                        }
                    ]
                },
                "subject": {
                    "reference": "urn:uuid:9cd8d8e0-b4a5-4caa-b60a-a4908a4a9556"
                },
                "performer": [
                    {
                        "reference": "urn:uuid:885a15de-26ea-4a27-899a-7bd3fece3dfe"
                    },
                    {
                        "reference": "urn:uuid:41a4a46e-8b48-4d10-bb13-4a8e04de6056"
                    }
                ],
                "valueQuantity": {
                    "value": 1001,
                    "unit": "ng/L"
                },
                "specimen": {
                    "reference": "urn:uuid:aaa8e972-4a61-49c1-8966-f6ad94c7bfef"
                },
                "referenceRange": [
                    {
                        "low": {
                            "value": 170
                        },
                        "high": {
                            "value": 1100
                        }
                    }
                ],
                "related": [
                    {
                        "target": {
                            "reference": "urn:uuid:7cb9ee13-5a7e-4e0f-ac70-7c0cb934168d"
                        }
                    }
                ]
            }
        },
        {
            "fullUrl": "urn:uuid:3aad0f97-0679-4d4d-8fb2-d943faf2d583",
            "resource": {
                "resourceType": "Observation",
                "id": "3aad0f97-0679-4d4d-8fb2-d943faf2d583",
                "meta": {
                    "profile": [
                        "https://fhir.hl7.org.uk/STU3/StructureDefinition/CareConnect-Observation-1"
                    ]
                },
                "status": "unknown",
                "code": {
                    "coding": [
                        {
                            "system": "http://read.info/readv2",
                            "code": "42UE.",
                            "display": "Plasma folate level"
                        }
                    ]
                },
                "subject": {
                    "reference": "urn:uuid:9cd8d8e0-b4a5-4caa-b60a-a4908a4a9556"
                },
                "performer": [
                    {
                        "reference": "urn:uuid:885a15de-26ea-4a27-899a-7bd3fece3dfe"
                    },
                    {
                        "reference": "urn:uuid:41a4a46e-8b48-4d10-bb13-4a8e04de6056"
                    }
                ],
                "valueQuantity": {
                    "value": 0.8,
                    "unit": "ng/mL"
                },
                "specimen": {
                    "reference": "urn:uuid:aaa8e972-4a61-49c1-8966-f6ad94c7bfef"
                },
                "referenceRange": [
                    {
                        "low": {
                            "value": 2.0
                        },
                        "high": {
                            "value": 20.0
                        }
                    }
                ],
                "related": [
                    {
                        "target": {
                            "reference": "urn:uuid:7cb9ee13-5a7e-4e0f-ac70-7c0cb934168d"
                        }
                    }
                ]
            }
        }
    ]
}