{
    "resourceType": "Bundle",
    "id": "2fb14656-9228-484c-86be-d4c0ba0830c1",
    "meta": {
        "lastUpdated": "2021-04-27T13:31:57.421+01:00",
        "profile": [
            "https://fhir.nhs.uk/STU3/StructureDefinition/ITK-Message-Bundle-1"
        ]
    },
    "identifier": {
        "system": "https://tools.ietf.org/html/rfc4122",
        "value": "2144c505-8533-4813-8556-462e9ef2c68b"
    },
    "type": "message",
    "entry": [
        {
            "fullUrl": "urn:uuid:b4f562c7-e797-4699-b7eb-6114b7dece26",
            "resource": {
                "resourceType": "MessageHeader",
                "id": "b4f562c7-e797-4699-b7eb-6114b7dece26",
                "meta": {
                    "profile": [
                        "https://fhir.nhs.uk/STU3/StructureDefinition/ITK-MessageHeader-2"
                    ]
                },
                "extension": [
                    {
                        "url": "https://fhir.nhs.uk/STU3/StructureDefinition/Extension-ITK-MessageHandling-2",
                        "extension": [
                            {
                                "url": "BusAckRequested",
                                "valueBoolean": true
                            },
                            {
                                "url": "InfAckRequested",
                                "valueBoolean": true
                            },
                            {
                                "url": "RecipientType",
                                "valueCoding": {
                                    "system": "https://fhir.nhs.uk/STU3/CodeSystem/ITK-RecipientType-1",
                                    "code": "FA",
                                    "display": "For Action"
                                }
                            },
                            {
                                "url": "SenderReference",
                                "valueString": "None"
                            },
                            {
                                "url": "LocalExtension",
                                "valueString": "None"
                            }
                        ]
                    }
                ],
                "event": {
                    "system": "https://fhir.nhs.uk/STU3/CodeSystem/ITK-MessageEvent-2",
                    "code": "ITK012M",
                    "display": "ITK National Pathology"
                },
                "receiver": {
                    "reference": "urn:uuid:7963c41d-68e0-4780-af50-2edd0b031cc4"
                },
                "sender": {
                    "reference": "urn:uuid:04a0583d-99aa-4811-b2f4-685e66653495"
                },
                "timestamp": "2010-03-01T17:51:00.000+00:00",
                "source": {
                    "endpoint": "lab_results_mailbox"
                },
                "responsible": {
                    "reference": "urn:uuid:04a0583d-99aa-4811-b2f4-685e66653495"
                },
                "focus": [
                    {
                        "reference": "urn:uuid:4fbf15a6-5844-4229-a970-0a113ac64d2e"
                    }
                ]
            }
        },
        {
            "fullUrl": "urn:uuid:6843fb3b-990d-422a-bcbe-e9471481e3b1",
            "resource": {
                "resourceType": "Patient",
                "id": "6843fb3b-990d-422a-bcbe-e9471481e3b1",
                "meta": {
                    "profile": [
                        "https://fhir.hl7.org.uk/STU3/StructureDefinition/CareConnect-Patient-1"
                    ]
                },
                "identifier": [
                    {
                        "extension": [
                            {
                                "url": "https://fhir.hl7.org.uk/STU3/StructureDefinition/Extension-CareConnect-NHSNumberVerificationStatus-1",
                                "valueCodeableConcept": {
                                    "coding": [
                                        {
                                            "system": "https://fhir.hl7.org.uk/STU3/CodeSystem/CareConnect-NHSNumberVerificationStatus-1",
                                            "code": "01",
                                            "display": "Number present and verified"
                                        }
                                    ]
                                }
                            }
                        ],
                        "system": "https://fhir.nhs.uk/Id/nhs-number",
                        "value": "9435492908"
                    }
                ],
                "name": [
                    {
                        "use": "official",
                        "family": "TALEBI",
                        "given": [
                            "WASEEMA"
                        ]
                    }
                ],
                "gender": "female",
                "birthDate": "1961-08-14",
                "address": [
                    {
                        "line": [
                            "FLAT1",
                            "29 COPPICE WOOD GROVE",
                            "LEEDS"
                        ],
                        "postalCode": "LS20 9JU"
                    }
                ]
            }
        },
        {
            "fullUrl": "urn:uuid:e0ac9428-b0f3-4137-945b-aeb83979b8f7",
            "resource": {
                "resourceType": "Practitioner",
                "id": "e0ac9428-b0f3-4137-945b-aeb83979b8f7",
                "meta": {
                    "profile": [
                        "https://fhir.hl7.org.uk/STU3/StructureDefinition/CareConnect-Practitioner-1"
                    ]
                },
                "identifier": [
                    {
                        "system": "https://fhir.nhs.uk/Id/sds-user-id",
                        "value": "G3380314"
                    }
                ],
                "name": [
                    {
                        "text": "SCOTT"
                    }
                ]
            }
        },
        {
            "fullUrl": "urn:uuid:7963c41d-68e0-4780-af50-2edd0b031cc4",
            "resource": {
                "resourceType": "Organization",
                "id": "7963c41d-68e0-4780-af50-2edd0b031cc4",
                "meta": {
                    "profile": [
                        "https://fhir.hl7.org.uk/STU3/StructureDefinition/CareConnect-Organization-1"
                    ]
                }
            }
        },
        {
            "fullUrl": "urn:uuid:dcf39bd0-a05a-49e4-8057-310aafd70061",
            "resource": {
                "resourceType": "Practitioner",
                "id": "dcf39bd0-a05a-49e4-8057-310aafd70061",
                "meta": {
                    "profile": [
                        "https://fhir.hl7.org.uk/STU3/StructureDefinition/CareConnect-Practitioner-1"
                    ]
                }
            }
        },
        {
            "fullUrl": "urn:uuid:04a0583d-99aa-4811-b2f4-685e66653495",
            "resource": {
                "resourceType": "Organization",
                "id": "04a0583d-99aa-4811-b2f4-685e66653495",
                "meta": {
                    "profile": [
                        "https://fhir.hl7.org.uk/STU3/StructureDefinition/CareConnect-Organization-1"
                    ]
                },
                "type": [
                    {
                        "coding": [
                            {
                                "code": "dept",
                                "display": "HAEMATOLOGY"
                            }
                        ]
                    }
                ],
                "name": "ST JAMES'S UNIVERSITY HOSPITAL"
            }
        },
        {
            "fullUrl": "urn:uuid:ae0bada9-447a-4189-948a-df454d09c73d",
            "resource": {
                "resourceType": "ProcedureRequest",
                "id": "ae0bada9-447a-4189-948a-df454d09c73d",
                "meta": {
                    "profile": [
                        "https://fhir.hl7.org.uk/STU3/StructureDefinition/CareConnect-ProcedureRequest-1"
                    ]
                },
                "status": "unknown",
                "intent": "order",
                "code": {
                    "text": "unknown"
                },
                "subject": {
                    "reference": "urn:uuid:6843fb3b-990d-422a-bcbe-e9471481e3b1"
                },
                "requester": {
                    "agent": {
                        "reference": "urn:uuid:e0ac9428-b0f3-4137-945b-aeb83979b8f7"
                    },
                    "onBehalfOf": {
                        "reference": "urn:uuid:7963c41d-68e0-4780-af50-2edd0b031cc4"
                    }
                },
                "performer": {
                    "reference": "urn:uuid:dcf39bd0-a05a-49e4-8057-310aafd70061"
                },
                "note": [
                    {
                        "text": "COELIAC"
                    }
                ]
            }
        },
        {
            "fullUrl": "urn:uuid:4fbf15a6-5844-4229-a970-0a113ac64d2e",
            "resource": {
                "resourceType": "DiagnosticReport",
                "id": "4fbf15a6-5844-4229-a970-0a113ac64d2e",
                "meta": {
                    "profile": [
                        "https://fhir.hl7.org.uk/STU3/StructureDefinition/CareConnect-DiagnosticReport-1"
                    ]
                },
                "identifier": [
                    {
                        "system": "https://tools.ietf.org/html/rfc4122",
                        "value": "15/CH000040N/200010191704"
                    }
                ],
                "basedOn": [
                    {
                        "reference": "urn:uuid:ae0bada9-447a-4189-948a-df454d09c73d"
                    }
                ],
                "status": "unknown",
                "code": {
                    "coding": [
                        {
                            "system": "http://snomed.info/sct",
                            "code": "721981007",
                            "display": "Diagnostic studies report"
                        }
                    ]
                },
                "subject": {
                    "reference": "urn:uuid:6843fb3b-990d-422a-bcbe-e9471481e3b1"
                },
                "issued": "2010-02-25T15:41:00.000+00:00",
                "performer": [
                    {
                        "actor": {
                            "reference": "urn:uuid:04a0583d-99aa-4811-b2f4-685e66653495"
                        }
                    },
                    {
                        "actor": {
                            "reference": "urn:uuid:dcf39bd0-a05a-49e4-8057-310aafd70061"
                        }
                    }
                ],
                "specimen": [
                    {
                        "reference": "urn:uuid:25906ced-d52e-4eb9-89aa-3dedc60d29db"
                    }
                ],
                "result": [
                    {
                        "reference": "urn:uuid:69df13ac-57cf-4c46-9f16-4b8837d2a936"
                    }
                ]
            }
        },
        {
            "fullUrl": "urn:uuid:25906ced-d52e-4eb9-89aa-3dedc60d29db",
            "resource": {
                "resourceType": "Specimen",
                "id": "25906ced-d52e-4eb9-89aa-3dedc60d29db",
                "meta": {
                    "profile": [
                        "https://fhir.hl7.org.uk/STU3/StructureDefinition/CareConnect-Specimen-1"
                    ]
                },
                "accessionIdentifier": {
                    "system": "http://lab.acme.org/specimens/2011",
                    "value": "CH000040NB"
                },
                "type": {
                    "coding": [
                        {
                            "system": "http://snomed.info/sct",
                            "display": "VENOUS BLOOD"
                        }
                    ]
                },
                "subject": {
                    "reference": "urn:uuid:6843fb3b-990d-422a-bcbe-e9471481e3b1"
                }
            }
        },
        {
            "fullUrl": "urn:uuid:69df13ac-57cf-4c46-9f16-4b8837d2a936",
            "resource": {
                "resourceType": "Observation",
                "id": "69df13ac-57cf-4c46-9f16-4b8837d2a936",
                "meta": {
                    "profile": [
                        "https://fhir.hl7.org.uk/STU3/StructureDefinition/CareConnect-Observation-1"
                    ]
                },
                "status": "unknown",
                "code": {
                    "coding": [
                        {
                            "display": "B12/FOLATE"
                        }
                    ]
                },
                "subject": {
                    "reference": "urn:uuid:6843fb3b-990d-422a-bcbe-e9471481e3b1"
                },
                "performer": [
                    {
                        "reference": "urn:uuid:04a0583d-99aa-4811-b2f4-685e66653495"
                    },
                    {
                        "reference": "urn:uuid:dcf39bd0-a05a-49e4-8057-310aafd70061"
                    }
                ],
                "comment": "Results repeated Low plasma Folate",
                "specimen": {
                    "reference": "urn:uuid:25906ced-d52e-4eb9-89aa-3dedc60d29db"
                },
                "related": [
                    {
                        "type": "has-member",
                        "target": {
                            "reference": "urn:uuid:953d248b-59eb-4b84-b06c-3217626d9cf2"
                        }
                    },
                    {
                        "type": "has-member",
                        "target": {
                            "reference": "urn:uuid:a348107b-fff7-4554-a787-d10e2d15e440"
                        }
                    }
                ]
            }
        },
        {
            "fullUrl": "urn:uuid:953d248b-59eb-4b84-b06c-3217626d9cf2",
            "resource": {
                "resourceType": "Observation",
                "id": "953d248b-59eb-4b84-b06c-3217626d9cf2",
                "meta": {
                    "profile": [
                        "https://fhir.hl7.org.uk/STU3/StructureDefinition/CareConnect-Observation-1"
                    ]
                },
                "status": "unknown",
                "code": {
                    "coding": [
                        {
                            "system": "http://read.info/readv2",
                            "code": "42T..",
                            "display": "Serum vitamin B12"
                        }
                    ]
                },
                "subject": {
                    "reference": "urn:uuid:6843fb3b-990d-422a-bcbe-e9471481e3b1"
                },
                "performer": [
                    {
                        "reference": "urn:uuid:04a0583d-99aa-4811-b2f4-685e66653495"
                    },
                    {
                        "reference": "urn:uuid:dcf39bd0-a05a-49e4-8057-310aafd70061"
                    }
                ],
                "valueQuantity": {
                    "value": 1001,
                    "unit": "ng/L"
                },
                "specimen": {
                    "reference": "urn:uuid:25906ced-d52e-4eb9-89aa-3dedc60d29db"
                },
                "referenceRange": [
                    {
                        "low": {
                            "value": 170
                        },
                        "high": {
                            "value": 1100
                        }
                    }
                ],
                "related": [
                    {
                        "target": {
                            "reference": "urn:uuid:69df13ac-57cf-4c46-9f16-4b8837d2a936"
                        }
                    }
                ]
            }
        },
        {
            "fullUrl": "urn:uuid:a348107b-fff7-4554-a787-d10e2d15e440",
            "resource": {
                "resourceType": "Observation",
                "id": "a348107b-fff7-4554-a787-d10e2d15e440",
                "meta": {
                    "profile": [
                        "https://fhir.hl7.org.uk/STU3/StructureDefinition/CareConnect-Observation-1"
                    ]
                },
                "status": "unknown",
                "code": {
                    "coding": [
                        {
                            "system": "http://read.info/readv2",
                            "code": "42UE.",
                            "display": "Plasma folate level"
                        }
                    ]
                },
                "subject": {
                    "reference": "urn:uuid:6843fb3b-990d-422a-bcbe-e9471481e3b1"
                },
                "performer": [
                    {
                        "reference": "urn:uuid:04a0583d-99aa-4811-b2f4-685e66653495"
                    },
                    {
                        "reference": "urn:uuid:dcf39bd0-a05a-49e4-8057-310aafd70061"
                    }
                ],
                "valueQuantity": {
                    "value": 0.8,
                    "unit": "ng/mL"
                },
                "specimen": {
                    "reference": "urn:uuid:25906ced-d52e-4eb9-89aa-3dedc60d29db"
                },
                "referenceRange": [
                    {
                        "low": {
                            "value": 2.0
                        },
                        "high": {
                            "value": 20.0
                        }
                    }
                ],
                "related": [
                    {
                        "target": {
                            "reference": "urn:uuid:69df13ac-57cf-4c46-9f16-4b8837d2a936"
                        }
                    }
                ]
            }
        }
    ]
}