{
    "resourceType": "Bundle",
    "id": "0f2e0945-fb86-4801-9921-12836cb35577",
    "meta": {
        "lastUpdated": "2021-04-27T13:31:57.439+01:00",
        "profile": [
            "https://fhir.nhs.uk/STU3/StructureDefinition/ITK-Message-Bundle-1"
        ]
    },
    "identifier": {
        "system": "https://tools.ietf.org/html/rfc4122",
        "value": "0cdf9f89-d119-4d19-b7f0-bdbfcb0c287d"
    },
    "type": "message",
    "entry": [
        {
            "fullUrl": "urn:uuid:33d3d404-3ea6-4a71-8662-7616209e26b6",
            "resource": {
                "resourceType": "MessageHeader",
                "id": "33d3d404-3ea6-4a71-8662-7616209e26b6",
                "meta": {
                    "profile": [
                        "https://fhir.nhs.uk/STU3/StructureDefinition/ITK-MessageHeader-2"
                    ]
                },
                "extension": [
                    {
                        "url": "https://fhir.nhs.uk/STU3/StructureDefinition/Extension-ITK-MessageHandling-2",
                        "extension": [
                            {
                                "url": "BusAckRequested",
                                "valueBoolean": true
                            },
                            {
                                "url": "InfAckRequested",
                                "valueBoolean": true
                            },
                            {
                                "url": "RecipientType",
                                "valueCoding": {
                                    "system": "https://fhir.nhs.uk/STU3/CodeSystem/ITK-RecipientType-1",
                                    "code": "FA",
                                    "display": "For Action"
                                }
                            },
                            {
                                "url": "SenderReference",
                                "valueString": "None"
                            },
                            {
                                "url": "LocalExtension",
                                "valueString": "None"
                            }
                        ]
                    }
                ],
                "event": {
                    "system": "https://fhir.nhs.uk/STU3/CodeSystem/ITK-MessageEvent-2",
                    "code": "ITK012M",
                    "display": "ITK National Pathology"
                },
                "receiver": {
                    "reference": "urn:uuid:81d232c8-e263-40d9-b29c-4c4636ca82ac"
                },
                "sender": {
                    "reference": "urn:uuid:83d72129-a426-4266-a430-6bdb6648622f"
                },
                "timestamp": "2010-03-01T17:51:00.000+00:00",
                "source": {
                    "endpoint": "lab_results_mailbox"
                },
                "responsible": {
                    "reference": "urn:uuid:83d72129-a426-4266-a430-6bdb6648622f"
                },
                "focus": [
                    {
                        "reference": "urn:uuid:57ceba26-7c4d-4747-8fb1-f62d1fecce4c"
                    }
                ]
            }
        },
        {
            "fullUrl": "urn:uuid:f7bbc2b4-53e8-4865-87c6-d45031279f85",
            "resource": {
                "resourceType": "Patient",
                "id": "f7bbc2b4-53e8-4865-87c6-d45031279f85",
                "meta": {
                    "profile": [
                        "https://fhir.hl7.org.uk/STU3/StructureDefinition/CareConnect-Patient-1"
                    ]
                },
                "name": [
                    {
                        "use": "official",
                        "family": "TALEBI",
                        "given": [
                            "WASEEMA"
                        ]
                    }
                ],
                "gender": "female",
                "birthDate": "1961-08-14",
                "address": [
                    {
                        "line": [
                            "FLAT2",
                            "40 COPPICE WOOD GROVE",
                            "LEEDS"
                        ],
                        "postalCode": "LS20 9JU"
                    }
                ]
            }
        },
        {
            "fullUrl": "urn:uuid:0f41ce90-f58b-45a3-9615-dd2d745a6af1",
            "resource": {
                "resourceType": "Practitioner",
                "id": "0f41ce90-f58b-45a3-9615-dd2d745a6af1",
                "meta": {
                    "profile": [
                        "https://fhir.hl7.org.uk/STU3/StructureDefinition/CareConnect-Practitioner-1"
                    ]
                },
                "identifier": [
                    {
                        "system": "https://fhir.nhs.uk/Id/sds-user-id",
                        "value": "G3380314"
                    }
                ],
                "name": [
                    {
                        "text": "SCOTT"
                    }
                ]
            }
        },
        {
            "fullUrl": "urn:uuid:81d232c8-e263-40d9-b29c-4c4636ca82ac",
            "resource": {
                "resourceType": "Organization",
                "id": "81d232c8-e263-40d9-b29c-4c4636ca82ac",
                "meta": {
                    "profile": [
                        "https://fhir.hl7.org.uk/STU3/StructureDefinition/CareConnect-Organization-1"
                    ]
                }
            }
        },
        {
            "fullUrl": "urn:uuid:ce89ac03-e61b-4ba4-a861-0923a34a98d2",
            "resource": {
                "resourceType": "Practitioner",
                "id": "ce89ac03-e61b-4ba4-a861-0923a34a98d2",
                "meta": {
                    "profile": [
                        "https://fhir.hl7.org.uk/STU3/StructureDefinition/CareConnect-Practitioner-1"
                    ]
                }
            }
        },
        {
            "fullUrl": "urn:uuid:83d72129-a426-4266-a430-6bdb6648622f",
            "resource": {
                "resourceType": "Organization",
                "id": "83d72129-a426-4266-a430-6bdb6648622f",
                "meta": {
                    "profile": [
                        "https://fhir.hl7.org.uk/STU3/StructureDefinition/CareConnect-Organization-1"
                    ]
                },
                "type": [
                    {
                        "coding": [
                            {
                                "code": "dept",
                                "display": "HAEMATOLOGY"
                            }
                        ]
                    }
                ],
                "name": "ST JAMES'S UNIVERSITY HOSPITAL"
            }
        },
        {
            "fullUrl": "urn:uuid:7fe9d22e-35a5-4f43-987f-d4d1b3ae9519",
            "resource": {
                "resourceType": "ProcedureRequest",
                "id": "7fe9d22e-35a5-4f43-987f-d4d1b3ae9519",
                "meta": {
                    "profile": [
                        "https://fhir.hl7.org.uk/STU3/StructureDefinition/CareConnect-ProcedureRequest-1"
                    ]
                },
                "status": "unknown",
                "intent": "order",
                "code": {
                    "text": "unknown"
                },
                "subject": {
                    "reference": "urn:uuid:f7bbc2b4-53e8-4865-87c6-d45031279f85"
                },
                "requester": {
                    "agent": {
                        "reference": "urn:uuid:0f41ce90-f58b-45a3-9615-dd2d745a6af1"
                    },
                    "onBehalfOf": {
                        "reference": "urn:uuid:81d232c8-e263-40d9-b29c-4c4636ca82ac"
                    }
                },
                "performer": {
                    "reference": "urn:uuid:ce89ac03-e61b-4ba4-a861-0923a34a98d2"
                },
                "note": [
                    {
                        "text": "COELIAC"
                    }
                ]
            }
        },
        {
            "fullUrl": "urn:uuid:57ceba26-7c4d-4747-8fb1-f62d1fecce4c",
            "resource": {
                "resourceType": "DiagnosticReport",
                "id": "57ceba26-7c4d-4747-8fb1-f62d1fecce4c",
                "meta": {
                    "profile": [
                        "https://fhir.hl7.org.uk/STU3/StructureDefinition/CareConnect-DiagnosticReport-1"
                    ]
                },
                "identifier": [
                    {
                        "system": "https://tools.ietf.org/html/rfc4122",
                        "value": "15/CH000040N/200010191704"
                    }
                ],
                "basedOn": [
                    {
                        "reference": "urn:uuid:7fe9d22e-35a5-4f43-987f-d4d1b3ae9519"
                    }
                ],
                "status": "unknown",
                "code": {
                    "coding": [
                        {
                            "system": "http://snomed.info/sct",
                            "code": "721981007",
                            "display": "Diagnostic studies report"
                        }
                    ]
                },
                "subject": {
                    "reference": "urn:uuid:f7bbc2b4-53e8-4865-87c6-d45031279f85"
                },
                "issued": "2010-02-25T15:41:00.000+00:00",
                "performer": [
                    {
                        "actor": {
                            "reference": "urn:uuid:83d72129-a426-4266-a430-6bdb6648622f"
                        }
                    },
                    {
                        "actor": {
                            "reference": "urn:uuid:ce89ac03-e61b-4ba4-a861-0923a34a98d2"
                        }
                    }
                ],
                "specimen": [
                    {
                        "reference": "urn:uuid:7a7a6481-90f3-40e3-a0c2-5baf19cfbc5c"
                    }
                ],
                "result": [
                    {
                        "reference": "urn:uuid:2b17dffe-bef3-47d8-95be-e0d04237103b"
                    }
                ]
            }
        },
        {
            "fullUrl": "urn:uuid:7a7a6481-90f3-40e3-a0c2-5baf19cfbc5c",
            "resource": {
                "resourceType": "Specimen",
                "id": "7a7a6481-90f3-40e3-a0c2-5baf19cfbc5c",
                "meta": {
                    "profile": [
                        "https://fhir.hl7.org.uk/STU3/StructureDefinition/CareConnect-Specimen-1"
                    ]
                },
                "accessionIdentifier": {
                    "system": "http://lab.acme.org/specimens/2011",
                    "value": "CH000040NB"
                },
                "type": {
                    "coding": [
                        {
                            "system": "http://snomed.info/sct",
                            "display": "VENOUS BLOOD"
                        }
                    ]
                },
                "subject": {
                    "reference": "urn:uuid:f7bbc2b4-53e8-4865-87c6-d45031279f85"
                }
            }
        },
        {
            "fullUrl": "urn:uuid:2b17dffe-bef3-47d8-95be-e0d04237103b",
            "resource": {
                "resourceType": "Observation",
                "id": "2b17dffe-bef3-47d8-95be-e0d04237103b",
                "meta": {
                    "profile": [
                        "https://fhir.hl7.org.uk/STU3/StructureDefinition/CareConnect-Observation-1"
                    ]
                },
                "status": "unknown",
                "code": {
                    "coding": [
                        {
                            "display": "B12/FOLATE"
                        }
                    ]
                },
                "subject": {
                    "reference": "urn:uuid:f7bbc2b4-53e8-4865-87c6-d45031279f85"
                },
                "performer": [
                    {
                        "reference": "urn:uuid:83d72129-a426-4266-a430-6bdb6648622f"
                    },
                    {
                        "reference": "urn:uuid:ce89ac03-e61b-4ba4-a861-0923a34a98d2"
                    }
                ],
                "comment": "Results repeated Low plasma Folate",
                "specimen": {
                    "reference": "urn:uuid:7a7a6481-90f3-40e3-a0c2-5baf19cfbc5c"
                },
                "related": [
                    {
                        "type": "has-member",
                        "target": {
                            "reference": "urn:uuid:21f375b5-9eb5-46b0-93c3-9cb2eea6e975"
                        }
                    },
                    {
                        "type": "has-member",
                        "target": {
                            "reference": "urn:uuid:66eb1944-d376-4d67-b8bd-b144b08f29e5"
                        }
                    }
                ]
            }
        },
        {
            "fullUrl": "urn:uuid:21f375b5-9eb5-46b0-93c3-9cb2eea6e975",
            "resource": {
                "resourceType": "Observation",
                "id": "21f375b5-9eb5-46b0-93c3-9cb2eea6e975",
                "meta": {
                    "profile": [
                        "https://fhir.hl7.org.uk/STU3/StructureDefinition/CareConnect-Observation-1"
                    ]
                },
                "status": "unknown",
                "code": {
                    "coding": [
                        {
                            "system": "http://read.info/readv2",
                            "code": "42T..",
                            "display": "Serum vitamin B12"
                        }
                    ]
                },
                "subject": {
                    "reference": "urn:uuid:f7bbc2b4-53e8-4865-87c6-d45031279f85"
                },
                "performer": [
                    {
                        "reference": "urn:uuid:83d72129-a426-4266-a430-6bdb6648622f"
                    },
                    {
                        "reference": "urn:uuid:ce89ac03-e61b-4ba4-a861-0923a34a98d2"
                    }
                ],
                "valueQuantity": {
                    "value": 1001,
                    "unit": "ng/L"
                },
                "specimen": {
                    "reference": "urn:uuid:7a7a6481-90f3-40e3-a0c2-5baf19cfbc5c"
                },
                "referenceRange": [
                    {
                        "low": {
                            "value": 170
                        },
                        "high": {
                            "value": 1100
                        }
                    }
                ],
                "related": [
                    {
                        "target": {
                            "reference": "urn:uuid:2b17dffe-bef3-47d8-95be-e0d04237103b"
                        }
                    }
                ]
            }
        },
        {
            "fullUrl": "urn:uuid:66eb1944-d376-4d67-b8bd-b144b08f29e5",
            "resource": {
                "resourceType": "Observation",
                "id": "66eb1944-d376-4d67-b8bd-b144b08f29e5",
                "meta": {
                    "profile": [
                        "https://fhir.hl7.org.uk/STU3/StructureDefinition/CareConnect-Observation-1"
                    ]
                },
                "status": "unknown",
                "code": {
                    "coding": [
                        {
                            "system": "http://read.info/readv2",
                            "code": "42UE.",
                            "display": "Plasma folate level"
                        }
                    ]
                },
                "subject": {
                    "reference": "urn:uuid:f7bbc2b4-53e8-4865-87c6-d45031279f85"
                },
                "performer": [
                    {
                        "reference": "urn:uuid:83d72129-a426-4266-a430-6bdb6648622f"
                    },
                    {
                        "reference": "urn:uuid:ce89ac03-e61b-4ba4-a861-0923a34a98d2"
                    }
                ],
                "valueQuantity": {
                    "value": 0.8,
                    "unit": "ng/mL"
                },
                "specimen": {
                    "reference": "urn:uuid:7a7a6481-90f3-40e3-a0c2-5baf19cfbc5c"
                },
                "referenceRange": [
                    {
                        "low": {
                            "value": 2.0
                        },
                        "high": {
                            "value": 20.0
                        }
                    }
                ],
                "related": [
                    {
                        "target": {
                            "reference": "urn:uuid:2b17dffe-bef3-47d8-95be-e0d04237103b"
                        }
                    }
                ]
            }
        }
    ]
}