{
    "resourceType": "Bundle",
    "id": "206b149f-b6ca-4f02-86e5-fc06cf331834",
    "meta": {
        "lastUpdated": "2021-04-22T14:04:29.741+02:00",
        "profile": [
            "https://fhir.nhs.uk/STU3/StructureDefinition/ITK-Message-Bundle-1"
        ]
    },
    "identifier": {
        "system": "https://tools.ietf.org/html/rfc4122",
        "value": "90418b7f-3c2c-4063-a7d5-4aaa36a96288"
    },
    "type": "message",
    "entry": [
        {
            "fullUrl": "urn:uuid:776e0f24-ac0c-45a0-a7db-1d7f2ace362e",
            "resource": {
                "resourceType": "MessageHeader",
                "id": "776e0f24-ac0c-45a0-a7db-1d7f2ace362e",
                "meta": {
                    "profile": [
                        "https://fhir.nhs.uk/STU3/StructureDefinition/ITK-MessageHeader-2"
                    ]
                },
                "extension": [
                    {
                        "url": "https://fhir.nhs.uk/STU3/StructureDefinition/Extension-ITK-MessageHandling-2",
                        "extension": [
                            {
                                "url": "BusAckRequested",
                                "valueBoolean": true
                            },
                            {
                                "url": "InfAckRequested",
                                "valueBoolean": true
                            },
                            {
                                "url": "RecipientType",
                                "valueCoding": {
                                    "system": "https://fhir.nhs.uk/STU3/CodeSystem/ITK-RecipientType-1",
                                    "code": "FA",
                                    "display": "For Action"
                                }
                            },
                            {
                                "url": "SenderReference",
                                "valueString": "None"
                            },
                            {
                                "url": "LocalExtension",
                                "valueString": "None"
                            }
                        ]
                    }
                ],
                "event": {
                    "system": "https://fhir.nhs.uk/STU3/CodeSystem/ITK-MessageEvent-2",
                    "code": "ITK012M",
                    "display": "ITK National Pathology"
                },
                "receiver": {
                    "reference": "urn:uuid:e152be4c-826a-42cd-ab86-7c07c9108fde"
                },
                "sender": {
                    "reference": "urn:uuid:eae1f7e1-49a7-46f6-bc36-ce7a936c4fc7"
                },
                "source": {
                    "endpoint": "lab_results_mailbox"
                },
                "responsible": {
                    "reference": "urn:uuid:eae1f7e1-49a7-46f6-bc36-ce7a936c4fc7"
                },
                "focus": [
                    {
                        "reference": "urn:uuid:e4240c57-872f-4870-a235-d38c5642ecca"
                    }
                ]
            }
        },
        {
            "fullUrl": "urn:uuid:94e4e821-f914-4b39-870c-1ccb1cb8a19e",
            "resource": {
                "resourceType": "Patient",
                "id": "94e4e821-f914-4b39-870c-1ccb1cb8a19e",
                "meta": {
                    "profile": [
                        "https://fhir.hl7.org.uk/STU3/StructureDefinition/CareConnect-Patient-1"
                    ]
                },
                "identifier": [
                    {
                        "system": "https://fhir.nhs.uk/Id/nhs-number",
                        "value": "9435492908"
                    }
                ],
                "name": [
                    {
                        "family": "TALEBI",
                        "given": [
                            "WASEEMA"
                        ]
                    }
                ],
                "gender": "female",
                "birthDate": "1961-08-14",
                "address": [
                    {
                        "line": [
                            "FLAT1",
                            "29 COPPICE WOOD GROVE",
                            "LEEDS"
                        ],
                        "postalCode": "LS20 9JU"
                    }
                ]
            }
        },
        {
            "fullUrl": "urn:uuid:16e57ce0-802d-493e-88e3-5b40af729494",
            "resource": {
                "resourceType": "Practitioner",
                "id": "16e57ce0-802d-493e-88e3-5b40af729494",
                "meta": {
                    "profile": [
                        "https://fhir.hl7.org.uk/STU3/StructureDefinition/CareConnect-Practitioner-1"
                    ]
                },
                "identifier": [
                    {
                        "system": "https://fhir.nhs.uk/Id/sds-user-id",
                        "value": "G3380314"
                    }
                ],
                "name": [
                    {
                        "text": "SCOTT"
                    }
                ]
            }
        },
        {
            "fullUrl": "urn:uuid:e152be4c-826a-42cd-ab86-7c07c9108fde",
            "resource": {
                "resourceType": "Organization",
                "id": "e152be4c-826a-42cd-ab86-7c07c9108fde",
                "meta": {
                    "profile": [
                        "https://fhir.hl7.org.uk/STU3/StructureDefinition/CareConnect-Organization-1"
                    ]
                }
            }
        },
        {
            "fullUrl": "urn:uuid:3742ae76-e690-457a-8f86-59572bb97bee",
            "resource": {
                "resourceType": "Practitioner",
                "id": "3742ae76-e690-457a-8f86-59572bb97bee",
                "meta": {
                    "profile": [
                        "https://fhir.hl7.org.uk/STU3/StructureDefinition/CareConnect-Practitioner-1"
                    ]
                }
            }
        },
        {
            "fullUrl": "urn:uuid:eae1f7e1-49a7-46f6-bc36-ce7a936c4fc7",
            "resource": {
                "resourceType": "Organization",
                "id": "eae1f7e1-49a7-46f6-bc36-ce7a936c4fc7",
                "meta": {
                    "profile": [
                        "https://fhir.hl7.org.uk/STU3/StructureDefinition/CareConnect-Organization-1"
                    ]
                },
                "type": [
                    {
                        "coding": [
                            {
                                "code": "dept",
                                "display": "HAEMATOLOGY"
                            }
                        ]
                    }
                ],
                "name": "ST JAMES'S UNIVERSITY HOSPITAL"
            }
        },
        {
            "fullUrl": "urn:uuid:85d23a68-748d-45ab-a2d6-cb4ddf4f9d69",
            "resource": {
                "resourceType": "ProcedureRequest",
                "id": "85d23a68-748d-45ab-a2d6-cb4ddf4f9d69",
                "meta": {
                    "profile": [
                        "https://fhir.hl7.org.uk/STU3/StructureDefinition/CareConnect-ProcedureRequest-1"
                    ]
                },
                "status": "unknown",
                "intent": "order",
                "code": {
                    "text": "unknown"
                },
                "subject": {
                    "reference": "urn:uuid:94e4e821-f914-4b39-870c-1ccb1cb8a19e"
                },
                "requester": {
                    "agent": {
                        "reference": "urn:uuid:16e57ce0-802d-493e-88e3-5b40af729494"
                    },
                    "onBehalfOf": {
                        "reference": "urn:uuid:e152be4c-826a-42cd-ab86-7c07c9108fde"
                    }
                },
                "performer": {
                    "reference": "urn:uuid:3742ae76-e690-457a-8f86-59572bb97bee"
                },
                "note": [
                    {
                        "text": "COELIAC"
                    }
                ]
            }
        },
        {
            "fullUrl": "urn:uuid:e4240c57-872f-4870-a235-d38c5642ecca",
            "resource": {
                "resourceType": "DiagnosticReport",
                "id": "e4240c57-872f-4870-a235-d38c5642ecca",
                "meta": {
                    "profile": [
                        "https://fhir.hl7.org.uk/STU3/StructureDefinition/CareConnect-DiagnosticReport-1"
                    ]
                },
                "identifier": [
                    {
                        "value": "15/CH000040N/200010191704"
                    }
                ],
                "basedOn": [
                    {
                        "reference": "urn:uuid:85d23a68-748d-45ab-a2d6-cb4ddf4f9d69"
                    }
                ],
                "status": "unknown",
                "code": {
                    "coding": [
                        {
                            "system": "http://snomed.info/sct",
                            "code": "721981007",
                            "display": "Diagnostic studies report"
                        }
                    ]
                },
                "subject": {
                    "reference": "urn:uuid:94e4e821-f914-4b39-870c-1ccb1cb8a19e"
                },
                "issued": "2010-02-25T16:41:00.000+01:00",
                "performer": [
                    {
                        "actor": {
                            "reference": "urn:uuid:eae1f7e1-49a7-46f6-bc36-ce7a936c4fc7"
                        }
                    },
                    {
                        "actor": {
                            "reference": "urn:uuid:3742ae76-e690-457a-8f86-59572bb97bee"
                        }
                    }
                ],
                "specimen": [
                    {
                        "reference": "urn:uuid:f835a2d9-7a57-41cb-8673-421b625da1bd"
                    }
                ],
                "result": [
                    {
                        "reference": "urn:uuid:05e517b1-5cd2-4ca1-bf02-24e7d19dd6bd"
                    }
                ]
            }
        },
        {
            "fullUrl": "urn:uuid:f835a2d9-7a57-41cb-8673-421b625da1bd",
            "resource": {
                "resourceType": "Specimen",
                "id": "f835a2d9-7a57-41cb-8673-421b625da1bd",
                "meta": {
                    "profile": [
                        "https://fhir.hl7.org.uk/STU3/StructureDefinition/CareConnect-Specimen-1"
                    ]
                },
                "accessionIdentifier": {
                    "system": "http://lab.acme.org/specimens/2011",
                    "value": "CH000040NB"
                },
                "type": {
                    "coding": [
                        {
                            "system": "http://snomed.info/sct",
                            "display": "VENOUS BLOOD"
                        }
                    ]
                },
                "subject": {
                    "reference": "urn:uuid:94e4e821-f914-4b39-870c-1ccb1cb8a19e"
                }
            }
        },
        {
            "fullUrl": "urn:uuid:05e517b1-5cd2-4ca1-bf02-24e7d19dd6bd",
            "resource": {
                "resourceType": "Observation",
                "id": "05e517b1-5cd2-4ca1-bf02-24e7d19dd6bd",
                "meta": {
                    "profile": [
                        "https://fhir.hl7.org.uk/STU3/StructureDefinition/CareConnect-Observation-1"
                    ]
                },
                "status": "unknown",
                "code": {
                    "coding": [
                        {
                            "display": "B12/FOLATE"
                        }
                    ]
                },
                "subject": {
                    "reference": "urn:uuid:94e4e821-f914-4b39-870c-1ccb1cb8a19e"
                },
                "performer": [
                    {
                        "reference": "urn:uuid:eae1f7e1-49a7-46f6-bc36-ce7a936c4fc7"
                    },
                    {
                        "reference": "urn:uuid:3742ae76-e690-457a-8f86-59572bb97bee"
                    }
                ],
                "comment": "Results repeated Low plasma Folate",
                "specimen": {
                    "reference": "urn:uuid:f835a2d9-7a57-41cb-8673-421b625da1bd"
                },
                "related": [
                    {
                        "type": "has-member",
                        "target": {
                            "reference": "urn:uuid:4bff112e-9d64-4fed-a15a-eb1e937c8a58"
                        }
                    },
                    {
                        "type": "has-member",
                        "target": {
                            "reference": "urn:uuid:7001ba6c-6c44-41e7-a1f7-2cd6440b4a70"
                        }
                    }
                ]
            }
        },
        {
            "fullUrl": "urn:uuid:4bff112e-9d64-4fed-a15a-eb1e937c8a58",
            "resource": {
                "resourceType": "Observation",
                "id": "4bff112e-9d64-4fed-a15a-eb1e937c8a58",
                "meta": {
                    "profile": [
                        "https://fhir.hl7.org.uk/STU3/StructureDefinition/CareConnect-Observation-1"
                    ]
                },
                "status": "unknown",
                "code": {
                    "coding": [
                        {
                            "system": "http://read.info/readv2",
                            "code": "42T..",
                            "display": "Serum vitamin B12"
                        }
                    ]
                },
                "subject": {
                    "reference": "urn:uuid:94e4e821-f914-4b39-870c-1ccb1cb8a19e"
                },
                "performer": [
                    {
                        "reference": "urn:uuid:eae1f7e1-49a7-46f6-bc36-ce7a936c4fc7"
                    },
                    {
                        "reference": "urn:uuid:3742ae76-e690-457a-8f86-59572bb97bee"
                    }
                ],
                "valueQuantity": {
                    "value": 1001,
                    "unit": "ng/L"
                },
                "specimen": {
                    "reference": "urn:uuid:f835a2d9-7a57-41cb-8673-421b625da1bd"
                },
                "referenceRange": [
                    {
                        "low": {
                            "value": 170
                        },
                        "high": {
                            "value": 1100
                        }
                    }
                ],
                "related": [
                    {
                        "target": {
                            "reference": "urn:uuid:05e517b1-5cd2-4ca1-bf02-24e7d19dd6bd"
                        }
                    }
                ]
            }
        },
        {
            "fullUrl": "urn:uuid:7001ba6c-6c44-41e7-a1f7-2cd6440b4a70",
            "resource": {
                "resourceType": "Observation",
                "id": "7001ba6c-6c44-41e7-a1f7-2cd6440b4a70",
                "meta": {
                    "profile": [
                        "https://fhir.hl7.org.uk/STU3/StructureDefinition/CareConnect-Observation-1"
                    ]
                },
                "status": "unknown",
                "code": {
                    "coding": [
                        {
                            "system": "http://read.info/readv2",
                            "code": "42UE.",
                            "display": "Plasma folate level"
                        }
                    ]
                },
                "subject": {
                    "reference": "urn:uuid:94e4e821-f914-4b39-870c-1ccb1cb8a19e"
                },
                "performer": [
                    {
                        "reference": "urn:uuid:eae1f7e1-49a7-46f6-bc36-ce7a936c4fc7"
                    },
                    {
                        "reference": "urn:uuid:3742ae76-e690-457a-8f86-59572bb97bee"
                    }
                ],
                "valueQuantity": {
                    "value": 0.8,
                    "unit": "ng/mL"
                },
                "specimen": {
                    "reference": "urn:uuid:f835a2d9-7a57-41cb-8673-421b625da1bd"
                },
                "referenceRange": [
                    {
                        "low": {
                            "value": 2.0
                        },
                        "high": {
                            "value": 20.0
                        }
                    }
                ],
                "related": [
                    {
                        "target": {
                            "reference": "urn:uuid:05e517b1-5cd2-4ca1-bf02-24e7d19dd6bd"
                        }
                    }
                ]
            }
        }
    ]
}