{
    "resourceType": "Bundle",
    "id": "ed91a8e0-0e80-4156-866b-1edad54a6680",
    "meta": {
        "lastUpdated": "2021-04-22T13:28:47.894+02:00",
        "profile": [
            "https://fhir.nhs.uk/STU3/StructureDefinition/ITK-Message-Bundle-1"
        ]
    },
    "identifier": {
        "system": "https://tools.ietf.org/html/rfc4122",
        "value": "bc34a401-1aa4-43d7-928f-577cfa61b611"
    },
    "type": "message",
    "entry": [
        {
            "fullUrl": "urn:uuid:0eaee568-0947-444b-947b-e8fc495d9170",
            "resource": {
                "resourceType": "MessageHeader",
                "id": "0eaee568-0947-444b-947b-e8fc495d9170",
                "meta": {
                    "profile": [
                        "https://fhir.nhs.uk/STU3/StructureDefinition/ITK-MessageHeader-2"
                    ]
                },
                "extension": [
                    {
                        "url": "https://fhir.nhs.uk/STU3/StructureDefinition/Extension-ITK-MessageHandling-2",
                        "extension": [
                            {
                                "url": "BusAckRequested",
                                "valueBoolean": true
                            },
                            {
                                "url": "InfAckRequested",
                                "valueBoolean": true
                            },
                            {
                                "url": "RecipientType",
                                "valueCoding": {
                                    "system": "https://fhir.nhs.uk/STU3/CodeSystem/ITK-RecipientType-1",
                                    "code": "FA",
                                    "display": "For Action"
                                }
                            },
                            {
                                "url": "SenderReference",
                                "valueString": "None"
                            },
                            {
                                "url": "LocalExtension",
                                "valueString": "None"
                            }
                        ]
                    }
                ],
                "event": {
                    "system": "https://fhir.nhs.uk/STU3/CodeSystem/ITK-MessageEvent-2",
                    "code": "ITK012M",
                    "display": "ITK National Pathology"
                },
                "receiver": {
                    "reference": "urn:uuid:1d1cd9c3-e8fe-4ad9-ac0a-4d0f761a5e33"
                },
                "sender": {
                    "reference": "urn:uuid:a3ffb078-5b43-4015-96a5-8906806ef524"
                },
                "source": {
                    "endpoint": "lab_results_mailbox"
                },
                "responsible": {
                    "reference": "urn:uuid:a3ffb078-5b43-4015-96a5-8906806ef524"
                },
                "focus": [
                    {
                        "reference": "urn:uuid:85d33b51-3079-41b4-ba09-1cd0fb1b69c1"
                    }
                ]
            }
        },
        {
            "fullUrl": "urn:uuid:d8a31f3e-3500-49dd-bc28-abba776eafb1",
            "resource": {
                "resourceType": "Patient",
                "id": "d8a31f3e-3500-49dd-bc28-abba776eafb1",
                "meta": {
                    "profile": [
                        "https://fhir.hl7.org.uk/STU3/StructureDefinition/CareConnect-Patient-1"
                    ]
                },
                "name": [
                    {
                        "family": "TALEBI",
                        "given": [
                            "WASEEMA"
                        ]
                    }
                ],
                "gender": "female",
                "birthDate": "1961-08-14",
                "address": [
                    {
                        "line": [
                            "FLAT2",
                            "40 COPPICE WOOD GROVE",
                            "LEEDS"
                        ],
                        "postalCode": "LS20 9JU"
                    }
                ]
            }
        },
        {
            "fullUrl": "urn:uuid:8bb910e2-443c-4c02-b65b-9457715ed3fc",
            "resource": {
                "resourceType": "Practitioner",
                "id": "8bb910e2-443c-4c02-b65b-9457715ed3fc",
                "meta": {
                    "profile": [
                        "https://fhir.hl7.org.uk/STU3/StructureDefinition/CareConnect-Practitioner-1"
                    ]
                },
                "identifier": [
                    {
                        "system": "https://fhir.nhs.uk/Id/sds-user-id",
                        "value": "G3380314"
                    }
                ],
                "name": [
                    {
                        "text": "SCOTT"
                    }
                ]
            }
        },
        {
            "fullUrl": "urn:uuid:1d1cd9c3-e8fe-4ad9-ac0a-4d0f761a5e33",
            "resource": {
                "resourceType": "Organization",
                "id": "1d1cd9c3-e8fe-4ad9-ac0a-4d0f761a5e33",
                "meta": {
                    "profile": [
                        "https://fhir.hl7.org.uk/STU3/StructureDefinition/CareConnect-Organization-1"
                    ]
                }
            }
        },
        {
            "fullUrl": "urn:uuid:8f830d41-f1ca-4f75-8119-430ec7ff0bea",
            "resource": {
                "resourceType": "Practitioner",
                "id": "8f830d41-f1ca-4f75-8119-430ec7ff0bea",
                "meta": {
                    "profile": [
                        "https://fhir.hl7.org.uk/STU3/StructureDefinition/CareConnect-Practitioner-1"
                    ]
                }
            }
        },
        {
            "fullUrl": "urn:uuid:a3ffb078-5b43-4015-96a5-8906806ef524",
            "resource": {
                "resourceType": "Organization",
                "id": "a3ffb078-5b43-4015-96a5-8906806ef524",
                "meta": {
                    "profile": [
                        "https://fhir.hl7.org.uk/STU3/StructureDefinition/CareConnect-Organization-1"
                    ]
                },
                "type": [
                    {
                        "coding": [
                            {
                                "code": "dept",
                                "display": "HAEMATOLOGY"
                            }
                        ]
                    }
                ],
                "name": "ST JAMES'S UNIVERSITY HOSPITAL"
            }
        },
        {
            "fullUrl": "urn:uuid:9f2d3ab9-b21a-452c-9335-ad3e4ad7ac78",
            "resource": {
                "resourceType": "ProcedureRequest",
                "id": "9f2d3ab9-b21a-452c-9335-ad3e4ad7ac78",
                "meta": {
                    "profile": [
                        "https://fhir.hl7.org.uk/STU3/StructureDefinition/CareConnect-ProcedureRequest-1"
                    ]
                },
                "status": "unknown",
                "intent": "order",
                "code": {
                    "text": "unknown"
                },
                "subject": {
                    "reference": "urn:uuid:d8a31f3e-3500-49dd-bc28-abba776eafb1"
                },
                "requester": {
                    "agent": {
                        "reference": "urn:uuid:8bb910e2-443c-4c02-b65b-9457715ed3fc"
                    },
                    "onBehalfOf": {
                        "reference": "urn:uuid:1d1cd9c3-e8fe-4ad9-ac0a-4d0f761a5e33"
                    }
                },
                "performer": {
                    "reference": "urn:uuid:8f830d41-f1ca-4f75-8119-430ec7ff0bea"
                },
                "note": [
                    {
                        "text": "COELIAC"
                    }
                ]
            }
        },
        {
            "fullUrl": "urn:uuid:85d33b51-3079-41b4-ba09-1cd0fb1b69c1",
            "resource": {
                "resourceType": "DiagnosticReport",
                "id": "85d33b51-3079-41b4-ba09-1cd0fb1b69c1",
                "meta": {
                    "profile": [
                        "https://fhir.hl7.org.uk/STU3/StructureDefinition/CareConnect-DiagnosticReport-1"
                    ]
                },
                "identifier": [
                    {
                        "value": "15/CH000040N/200010191704"
                    }
                ],
                "basedOn": [
                    {
                        "reference": "urn:uuid:9f2d3ab9-b21a-452c-9335-ad3e4ad7ac78"
                    }
                ],
                "status": "unknown",
                "code": {
                    "coding": [
                        {
                            "system": "http://snomed.info/sct",
                            "code": "721981007",
                            "display": "Diagnostic studies report"
                        }
                    ]
                },
                "subject": {
                    "reference": "urn:uuid:d8a31f3e-3500-49dd-bc28-abba776eafb1"
                },
                "issued": "2010-02-25T16:41:00.000+01:00",
                "performer": [
                    {
                        "actor": {
                            "reference": "urn:uuid:a3ffb078-5b43-4015-96a5-8906806ef524"
                        }
                    },
                    {
                        "actor": {
                            "reference": "urn:uuid:8f830d41-f1ca-4f75-8119-430ec7ff0bea"
                        }
                    }
                ],
                "specimen": [
                    {
                        "reference": "urn:uuid:5f85fdb3-e88c-48ba-9c76-571ced134fcd"
                    }
                ],
                "result": [
                    {
                        "reference": "urn:uuid:eddf2720-d078-4e1a-b667-20f950c48f95"
                    }
                ]
            }
        },
        {
            "fullUrl": "urn:uuid:5f85fdb3-e88c-48ba-9c76-571ced134fcd",
            "resource": {
                "resourceType": "Specimen",
                "id": "5f85fdb3-e88c-48ba-9c76-571ced134fcd",
                "meta": {
                    "profile": [
                        "https://fhir.hl7.org.uk/STU3/StructureDefinition/CareConnect-Specimen-1"
                    ]
                },
                "accessionIdentifier": {
                    "system": "http://lab.acme.org/specimens/2011",
                    "value": "CH000040NB"
                },
                "type": {
                    "coding": [
                        {
                            "system": "http://snomed.info/sct",
                            "display": "VENOUS BLOOD"
                        }
                    ]
                },
                "subject": {
                    "reference": "urn:uuid:d8a31f3e-3500-49dd-bc28-abba776eafb1"
                }
            }
        },
        {
            "fullUrl": "urn:uuid:eddf2720-d078-4e1a-b667-20f950c48f95",
            "resource": {
                "resourceType": "Observation",
                "id": "eddf2720-d078-4e1a-b667-20f950c48f95",
                "meta": {
                    "profile": [
                        "https://fhir.hl7.org.uk/STU3/StructureDefinition/CareConnect-Observation-1"
                    ]
                },
                "status": "unknown",
                "code": {
                    "coding": [
                        {
                            "display": "B12/FOLATE"
                        }
                    ]
                },
                "subject": {
                    "reference": "urn:uuid:d8a31f3e-3500-49dd-bc28-abba776eafb1"
                },
                "performer": [
                    {
                        "reference": "urn:uuid:a3ffb078-5b43-4015-96a5-8906806ef524"
                    },
                    {
                        "reference": "urn:uuid:8f830d41-f1ca-4f75-8119-430ec7ff0bea"
                    }
                ],
                "comment": "Results repeated Low plasma Folate",
                "specimen": {
                    "reference": "urn:uuid:5f85fdb3-e88c-48ba-9c76-571ced134fcd"
                },
                "related": [
                    {
                        "type": "has-member",
                        "target": {
                            "reference": "urn:uuid:06e3fa11-85ef-4d6b-9501-e208eead0a2a"
                        }
                    },
                    {
                        "type": "has-member",
                        "target": {
                            "reference": "urn:uuid:a8f8ff82-d44a-422c-bcab-1b54f315e847"
                        }
                    }
                ]
            }
        },
        {
            "fullUrl": "urn:uuid:06e3fa11-85ef-4d6b-9501-e208eead0a2a",
            "resource": {
                "resourceType": "Observation",
                "id": "06e3fa11-85ef-4d6b-9501-e208eead0a2a",
                "meta": {
                    "profile": [
                        "https://fhir.hl7.org.uk/STU3/StructureDefinition/CareConnect-Observation-1"
                    ]
                },
                "status": "unknown",
                "code": {
                    "coding": [
                        {
                            "system": "http://read.info/readv2",
                            "code": "42T..",
                            "display": "Serum vitamin B12"
                        }
                    ]
                },
                "subject": {
                    "reference": "urn:uuid:d8a31f3e-3500-49dd-bc28-abba776eafb1"
                },
                "performer": [
                    {
                        "reference": "urn:uuid:a3ffb078-5b43-4015-96a5-8906806ef524"
                    },
                    {
                        "reference": "urn:uuid:8f830d41-f1ca-4f75-8119-430ec7ff0bea"
                    }
                ],
                "valueQuantity": {
                    "value": 1001,
                    "unit": "ng/L"
                },
                "specimen": {
                    "reference": "urn:uuid:5f85fdb3-e88c-48ba-9c76-571ced134fcd"
                },
                "referenceRange": [
                    {
                        "low": {
                            "value": 170
                        },
                        "high": {
                            "value": 1100
                        }
                    }
                ],
                "related": [
                    {
                        "target": {
                            "reference": "urn:uuid:eddf2720-d078-4e1a-b667-20f950c48f95"
                        }
                    }
                ]
            }
        },
        {
            "fullUrl": "urn:uuid:a8f8ff82-d44a-422c-bcab-1b54f315e847",
            "resource": {
                "resourceType": "Observation",
                "id": "a8f8ff82-d44a-422c-bcab-1b54f315e847",
                "meta": {
                    "profile": [
                        "https://fhir.hl7.org.uk/STU3/StructureDefinition/CareConnect-Observation-1"
                    ]
                },
                "status": "unknown",
                "code": {
                    "coding": [
                        {
                            "system": "http://read.info/readv2",
                            "code": "42UE.",
                            "display": "Plasma folate level"
                        }
                    ]
                },
                "subject": {
                    "reference": "urn:uuid:d8a31f3e-3500-49dd-bc28-abba776eafb1"
                },
                "performer": [
                    {
                        "reference": "urn:uuid:a3ffb078-5b43-4015-96a5-8906806ef524"
                    },
                    {
                        "reference": "urn:uuid:8f830d41-f1ca-4f75-8119-430ec7ff0bea"
                    }
                ],
                "valueQuantity": {
                    "value": 0.8,
                    "unit": "ng/mL"
                },
                "specimen": {
                    "reference": "urn:uuid:5f85fdb3-e88c-48ba-9c76-571ced134fcd"
                },
                "referenceRange": [
                    {
                        "low": {
                            "value": 2.0
                        },
                        "high": {
                            "value": 20.0
                        }
                    }
                ],
                "related": [
                    {
                        "target": {
                            "reference": "urn:uuid:eddf2720-d078-4e1a-b667-20f950c48f95"
                        }
                    }
                ]
            }
        }
    ]
}