{
    "resourceType": "Bundle",
    "id": "5127d75c-82ed-4b12-8d9e-5af0eb03b2bd",
    "meta": {
        "lastUpdated": "2021-05-31T12:46:23.555+01:00",
        "profile": [
            "https://fhir.nhs.uk/STU3/StructureDefinition/ITK-Message-Bundle-1"
        ]
    },
    "identifier": {
        "system": "https://tools.ietf.org/html/rfc4122",
        "value": "2b5a01f5-aea1-40bf-8c9d-8c21233cb42c"
    },
    "type": "message",
    "entry": [
        {
            "fullUrl": "urn:uuid:4634b4f8-e764-45fd-a268-e6ff7cbac5de",
            "resource": {
                "resourceType": "MessageHeader",
                "id": "4634b4f8-e764-45fd-a268-e6ff7cbac5de",
                "meta": {
                    "profile": [
                        "https://fhir.nhs.uk/STU3/StructureDefinition/ITK-MessageHeader-2"
                    ]
                },
                "extension": [
                    {
                        "url": "https://fhir.nhs.uk/STU3/StructureDefinition/Extension-ITK-MessageHandling-2",
                        "extension": [
                            {
                                "url": "BusAckRequested",
                                "valueBoolean": true
                            },
                            {
                                "url": "InfAckRequested",
                                "valueBoolean": true
                            },
                            {
                                "url": "RecipientType",
                                "valueCoding": {
                                    "system": "https://fhir.nhs.uk/STU3/CodeSystem/ITK-RecipientType-1",
                                    "code": "FA",
                                    "display": "For Action"
                                }
                            },
                            {
                                "url": "SenderReference",
                                "valueString": "None"
                            },
                            {
                                "url": "LocalExtension",
                                "valueString": "None"
                            }
                        ]
                    }
                ],
                "event": {
                    "system": "https://fhir.nhs.uk/STU3/CodeSystem/ITK-MessageEvent-2",
                    "code": "ITK012M",
                    "display": "ITK National Pathology"
                },
                "receiver": {
                    "reference": "urn:uuid:fe020565-1064-4889-ba95-354bad2996f2"
                },
                "sender": {
                    "reference": "urn:uuid:e5ba1ece-da0c-4749-a6a4-15bc2d37e050"
                },
                "timestamp": "2010-03-01T17:51:00.000+00:00",
                "source": {
                    "endpoint": "lab_results_mailbox"
                },
                "responsible": {
                    "reference": "urn:uuid:e5ba1ece-da0c-4749-a6a4-15bc2d37e050"
                },
                "focus": [
                    {
                        "reference": "urn:uuid:818a7d8b-831c-4828-b8de-706c25b2ac4c"
                    }
                ]
            }
        },
        {
            "fullUrl": "urn:uuid:0514d071-b7c7-4cfb-ab58-f450aba1fa11",
            "resource": {
                "resourceType": "Patient",
                "id": "0514d071-b7c7-4cfb-ab58-f450aba1fa11",
                "meta": {
                    "profile": [
                        "https://fhir.hl7.org.uk/STU3/StructureDefinition/CareConnect-Patient-1"
                    ]
                },
                "name": [
                    {
                        "use": "official",
                        "family": "TALEBI",
                        "given": [
                            "WASEEMA"
                        ]
                    }
                ],
                "gender": "female",
                "birthDate": "1961-08-14",
                "address": [
                    {
                        "line": [
                            "FLAT2",
                            "40 COPPICE WOOD GROVE",
                            "LEEDS"
                        ],
                        "postalCode": "LS20 9JU"
                    }
                ]
            }
        },
        {
            "fullUrl": "urn:uuid:03aeaa99-f35c-49d1-bbc6-a1e60bd7def8",
            "resource": {
                "resourceType": "Practitioner",
                "id": "03aeaa99-f35c-49d1-bbc6-a1e60bd7def8",
                "meta": {
                    "profile": [
                        "https://fhir.hl7.org.uk/STU3/StructureDefinition/CareConnect-Practitioner-1"
                    ]
                },
                "identifier": [
                    {
                        "system": "https://fhir.nhs.uk/Id/sds-user-id",
                        "value": "G3380314"
                    }
                ],
                "name": [
                    {
                        "text": "SCOTT"
                    }
                ]
            }
        },
        {
            "fullUrl": "urn:uuid:fe020565-1064-4889-ba95-354bad2996f2",
            "resource": {
                "resourceType": "Organization",
                "id": "fe020565-1064-4889-ba95-354bad2996f2",
                "meta": {
                    "profile": [
                        "https://fhir.hl7.org.uk/STU3/StructureDefinition/CareConnect-Organization-1"
                    ]
                }
            }
        },
        {
            "fullUrl": "urn:uuid:b43dc21f-bf4a-4900-a161-21ce84b67937",
            "resource": {
                "resourceType": "Practitioner",
                "id": "b43dc21f-bf4a-4900-a161-21ce84b67937",
                "meta": {
                    "profile": [
                        "https://fhir.hl7.org.uk/STU3/StructureDefinition/CareConnect-Practitioner-1"
                    ]
                }
            }
        },
        {
            "fullUrl": "urn:uuid:e5ba1ece-da0c-4749-a6a4-15bc2d37e050",
            "resource": {
                "resourceType": "Organization",
                "id": "e5ba1ece-da0c-4749-a6a4-15bc2d37e050",
                "meta": {
                    "profile": [
                        "https://fhir.hl7.org.uk/STU3/StructureDefinition/CareConnect-Organization-1"
                    ]
                },
                "type": [
                    {
                        "coding": [
                            {
                                "code": "dept",
                                "display": "HAEMATOLOGY"
                            }
                        ]
                    }
                ],
                "name": "ST JAMES'S UNIVERSITY HOSPITAL"
            }
        },
        {
            "fullUrl": "urn:uuid:fd1f0c36-608a-438d-ab27-5b1662121e66",
            "resource": {
                "resourceType": "ProcedureRequest",
                "id": "fd1f0c36-608a-438d-ab27-5b1662121e66",
                "meta": {
                    "profile": [
                        "https://fhir.hl7.org.uk/STU3/StructureDefinition/CareConnect-ProcedureRequest-1"
                    ]
                },
                "status": "unknown",
                "intent": "order",
                "code": {
                    "coding": [
                        {
                            "system": "http://snomed.info/sct",
                            "code": "15220000",
                            "display": "Laboratory test (procedure)"
                        }
                    ]
                },
                "subject": {
                    "reference": "urn:uuid:0514d071-b7c7-4cfb-ab58-f450aba1fa11"
                },
                "requester": {
                    "agent": {
                        "reference": "urn:uuid:03aeaa99-f35c-49d1-bbc6-a1e60bd7def8"
                    },
                    "onBehalfOf": {
                        "reference": "urn:uuid:fe020565-1064-4889-ba95-354bad2996f2"
                    }
                },
                "performer": {
                    "reference": "urn:uuid:b43dc21f-bf4a-4900-a161-21ce84b67937"
                },
                "note": [
                    {
                        "text": "COELIAC"
                    }
                ]
            }
        },
        {
            "fullUrl": "urn:uuid:818a7d8b-831c-4828-b8de-706c25b2ac4c",
            "resource": {
                "resourceType": "DiagnosticReport",
                "id": "818a7d8b-831c-4828-b8de-706c25b2ac4c",
                "meta": {
                    "profile": [
                        "https://fhir.hl7.org.uk/STU3/StructureDefinition/CareConnect-DiagnosticReport-1"
                    ]
                },
                "identifier": [
                    {
                        "system": "https://tools.ietf.org/html/rfc4122",
                        "value": "15/CH000040N/200010191704"
                    }
                ],
                "basedOn": [
                    {
                        "reference": "urn:uuid:fd1f0c36-608a-438d-ab27-5b1662121e66"
                    }
                ],
                "status": "unknown",
                "code": {
                    "coding": [
                        {
                            "system": "http://snomed.info/sct",
                            "code": "721981007",
                            "display": "Diagnostic studies report"
                        }
                    ]
                },
                "subject": {
                    "reference": "urn:uuid:0514d071-b7c7-4cfb-ab58-f450aba1fa11"
                },
                "issued": "2010-02-25T15:41:00.000+00:00",
                "performer": [
                    {
                        "actor": {
                            "reference": "urn:uuid:e5ba1ece-da0c-4749-a6a4-15bc2d37e050"
                        }
                    },
                    {
                        "actor": {
                            "reference": "urn:uuid:b43dc21f-bf4a-4900-a161-21ce84b67937"
                        }
                    }
                ],
                "specimen": [
                    {
                        "reference": "urn:uuid:f11c5d96-fc43-4612-be14-990b341ed1e9"
                    }
                ],
                "result": [
                    {
                        "reference": "urn:uuid:e038e1cc-db23-4147-83c0-d7ca107b9243"
                    }
                ]
            }
        },
        {
            "fullUrl": "urn:uuid:f11c5d96-fc43-4612-be14-990b341ed1e9",
            "resource": {
                "resourceType": "Specimen",
                "id": "f11c5d96-fc43-4612-be14-990b341ed1e9",
                "meta": {
                    "profile": [
                        "https://fhir.hl7.org.uk/STU3/StructureDefinition/CareConnect-Specimen-1"
                    ]
                },
                "accessionIdentifier": {
                    "system": "http://lab.acme.org/specimens/2011",
                    "value": "CH000040NB"
                },
                "type": {
                    "coding": [
                        {
                            "system": "http://snomed.info/sct",
                            "display": "VENOUS BLOOD"
                        }
                    ]
                },
                "subject": {
                    "reference": "urn:uuid:0514d071-b7c7-4cfb-ab58-f450aba1fa11"
                }
            }
        },
        {
            "fullUrl": "urn:uuid:e038e1cc-db23-4147-83c0-d7ca107b9243",
            "resource": {
                "resourceType": "Observation",
                "id": "e038e1cc-db23-4147-83c0-d7ca107b9243",
                "meta": {
                    "profile": [
                        "https://fhir.hl7.org.uk/STU3/StructureDefinition/CareConnect-Observation-1"
                    ]
                },
                "status": "unknown",
                "code": {
                    "coding": [
                        {
                            "display": "B12/FOLATE"
                        }
                    ]
                },
                "subject": {
                    "reference": "urn:uuid:0514d071-b7c7-4cfb-ab58-f450aba1fa11"
                },
                "performer": [
                    {
                        "reference": "urn:uuid:e5ba1ece-da0c-4749-a6a4-15bc2d37e050"
                    },
                    {
                        "reference": "urn:uuid:b43dc21f-bf4a-4900-a161-21ce84b67937"
                    }
                ],
                "comment": "Results repeated Low plasma Folate",
                "specimen": {
                    "reference": "urn:uuid:f11c5d96-fc43-4612-be14-990b341ed1e9"
                },
                "related": [
                    {
                        "type": "has-member",
                        "target": {
                            "reference": "urn:uuid:170ac24d-f313-4c83-b942-8f7ec2caf9cb"
                        }
                    },
                    {
                        "type": "has-member",
                        "target": {
                            "reference": "urn:uuid:3cc99e65-6955-4db1-991d-7720afff1b11"
                        }
                    }
                ]
            }
        },
        {
            "fullUrl": "urn:uuid:170ac24d-f313-4c83-b942-8f7ec2caf9cb",
            "resource": {
                "resourceType": "Observation",
                "id": "170ac24d-f313-4c83-b942-8f7ec2caf9cb",
                "meta": {
                    "profile": [
                        "https://fhir.hl7.org.uk/STU3/StructureDefinition/CareConnect-Observation-1"
                    ]
                },
                "status": "unknown",
                "code": {
                    "coding": [
                        {
                            "system": "http://read.info/readv2",
                            "code": "42T..",
                            "display": "Serum vitamin B12"
                        }
                    ]
                },
                "subject": {
                    "reference": "urn:uuid:0514d071-b7c7-4cfb-ab58-f450aba1fa11"
                },
                "performer": [
                    {
                        "reference": "urn:uuid:e5ba1ece-da0c-4749-a6a4-15bc2d37e050"
                    },
                    {
                        "reference": "urn:uuid:b43dc21f-bf4a-4900-a161-21ce84b67937"
                    }
                ],
                "valueQuantity": {
                    "value": 1001,
                    "unit": "ng/L"
                },
                "specimen": {
                    "reference": "urn:uuid:f11c5d96-fc43-4612-be14-990b341ed1e9"
                },
                "referenceRange": [
                    {
                        "low": {
                            "value": 170
                        },
                        "high": {
                            "value": 1100
                        }
                    }
                ],
                "related": [
                    {
                        "target": {
                            "reference": "urn:uuid:e038e1cc-db23-4147-83c0-d7ca107b9243"
                        }
                    }
                ]
            }
        },
        {
            "fullUrl": "urn:uuid:3cc99e65-6955-4db1-991d-7720afff1b11",
            "resource": {
                "resourceType": "Observation",
                "id": "3cc99e65-6955-4db1-991d-7720afff1b11",
                "meta": {
                    "profile": [
                        "https://fhir.hl7.org.uk/STU3/StructureDefinition/CareConnect-Observation-1"
                    ]
                },
                "status": "unknown",
                "code": {
                    "coding": [
                        {
                            "system": "http://read.info/readv2",
                            "code": "42UE.",
                            "display": "Plasma folate level"
                        }
                    ]
                },
                "subject": {
                    "reference": "urn:uuid:0514d071-b7c7-4cfb-ab58-f450aba1fa11"
                },
                "performer": [
                    {
                        "reference": "urn:uuid:e5ba1ece-da0c-4749-a6a4-15bc2d37e050"
                    },
                    {
                        "reference": "urn:uuid:b43dc21f-bf4a-4900-a161-21ce84b67937"
                    }
                ],
                "valueQuantity": {
                    "value": 0.8,
                    "unit": "ng/mL"
                },
                "specimen": {
                    "reference": "urn:uuid:f11c5d96-fc43-4612-be14-990b341ed1e9"
                },
                "referenceRange": [
                    {
                        "low": {
                            "value": 2.0
                        },
                        "high": {
                            "value": 20.0
                        }
                    }
                ],
                "related": [
                    {
                        "target": {
                            "reference": "urn:uuid:e038e1cc-db23-4147-83c0-d7ca107b9243"
                        }
                    }
                ]
            }
        }
    ]
}