{
    "resourceType": "Bundle",
    "id": "042e0946-a309-4aac-ad4c-92fe58675079",
    "meta": {
        "lastUpdated": "2021-04-22T13:26:53.826+02:00",
        "profile": [
            "https://fhir.nhs.uk/STU3/StructureDefinition/ITK-Message-Bundle-1"
        ]
    },
    "identifier": {
        "system": "https://tools.ietf.org/html/rfc4122",
        "value": "823e66ba-1db3-4a1c-a4e8-6114baf564bb"
    },
    "type": "message",
    "entry": [
        {
            "fullUrl": "urn:uuid:3688f193-dfa5-4517-80c5-1b59d6098962",
            "resource": {
                "resourceType": "MessageHeader",
                "id": "3688f193-dfa5-4517-80c5-1b59d6098962",
                "meta": {
                    "profile": [
                        "https://fhir.nhs.uk/STU3/StructureDefinition/ITK-MessageHeader-2"
                    ]
                },
                "extension": [
                    {
                        "url": "https://fhir.nhs.uk/STU3/StructureDefinition/Extension-ITK-MessageHandling-2",
                        "extension": [
                            {
                                "url": "BusAckRequested",
                                "valueBoolean": true
                            },
                            {
                                "url": "InfAckRequested",
                                "valueBoolean": true
                            },
                            {
                                "url": "RecipientType",
                                "valueCoding": {
                                    "system": "https://fhir.nhs.uk/STU3/CodeSystem/ITK-RecipientType-1",
                                    "code": "FA",
                                    "display": "For Action"
                                }
                            },
                            {
                                "url": "SenderReference",
                                "valueString": "None"
                            },
                            {
                                "url": "LocalExtension",
                                "valueString": "None"
                            }
                        ]
                    }
                ],
                "event": {
                    "system": "https://fhir.nhs.uk/STU3/CodeSystem/ITK-MessageEvent-2",
                    "code": "ITK012M",
                    "display": "ITK National Pathology"
                },
                "receiver": {
                    "reference": "urn:uuid:b43e1ee6-d6d8-4031-b888-876c89dea9ef"
                },
                "sender": {
                    "reference": "urn:uuid:be641e29-010c-41c4-b1a4-04c276549045"
                },
                "timestamp": "2010-03-01T18:51:00.000+00:00",
                "source": {
                    "endpoint": "lab_results_mailbox"
                },
                "responsible": {
                    "reference": "urn:uuid:be641e29-010c-41c4-b1a4-04c276549045"
                },
                "focus": [
                    {
                        "reference": "urn:uuid:74c86543-00b1-4c44-82c4-7c0e5180e20c"
                    }
                ]
            }
        },
        {
            "fullUrl": "urn:uuid:500ef916-88fe-4dc0-93f8-55202dcb13f3",
            "resource": {
                "resourceType": "Patient",
                "id": "500ef916-88fe-4dc0-93f8-55202dcb13f3",
                "meta": {
                    "profile": [
                        "https://fhir.hl7.org.uk/STU3/StructureDefinition/CareConnect-Patient-1"
                    ]
                },
                "identifier": [
                    {
                        "system": "https://fhir.nhs.uk/Id/nhs-number",
                        "value": "9435492908"
                    }
                ],
                "name": [
                    {
                        "family": "TALEBI",
                        "given": [
                            "WASEEMA"
                        ]
                    }
                ],
                "gender": "female",
                "birthDate": "1961-08-14",
                "address": [
                    {
                        "line": [
                            "FLAT1",
                            "29 COPPICE WOOD GROVE",
                            "LEEDS"
                        ],
                        "postalCode": "LS20 9JU"
                    }
                ]
            }
        },
        {
            "fullUrl": "urn:uuid:1e829b38-f70f-4290-b2d0-63511fd2892f",
            "resource": {
                "resourceType": "Practitioner",
                "id": "1e829b38-f70f-4290-b2d0-63511fd2892f",
                "meta": {
                    "profile": [
                        "https://fhir.hl7.org.uk/STU3/StructureDefinition/CareConnect-Practitioner-1"
                    ]
                },
                "identifier": [
                    {
                        "system": "https://fhir.nhs.uk/Id/sds-user-id",
                        "value": "G3380314"
                    }
                ],
                "name": [
                    {
                        "text": "SCOTT"
                    }
                ]
            }
        },
        {
            "fullUrl": "urn:uuid:b43e1ee6-d6d8-4031-b888-876c89dea9ef",
            "resource": {
                "resourceType": "Organization",
                "id": "b43e1ee6-d6d8-4031-b888-876c89dea9ef",
                "meta": {
                    "profile": [
                        "https://fhir.hl7.org.uk/STU3/StructureDefinition/CareConnect-Organization-1"
                    ]
                }
            }
        },
        {
            "fullUrl": "urn:uuid:a04167bf-727a-4478-83ab-62cd16acadd0",
            "resource": {
                "resourceType": "Practitioner",
                "id": "a04167bf-727a-4478-83ab-62cd16acadd0",
                "meta": {
                    "profile": [
                        "https://fhir.hl7.org.uk/STU3/StructureDefinition/CareConnect-Practitioner-1"
                    ]
                }
            }
        },
        {
            "fullUrl": "urn:uuid:be641e29-010c-41c4-b1a4-04c276549045",
            "resource": {
                "resourceType": "Organization",
                "id": "be641e29-010c-41c4-b1a4-04c276549045",
                "meta": {
                    "profile": [
                        "https://fhir.hl7.org.uk/STU3/StructureDefinition/CareConnect-Organization-1"
                    ]
                },
                "type": [
                    {
                        "coding": [
                            {
                                "code": "dept",
                                "display": "HAEMATOLOGY"
                            }
                        ]
                    }
                ],
                "name": "ST JAMES'S UNIVERSITY HOSPITAL"
            }
        },
        {
            "fullUrl": "urn:uuid:ba50b267-3166-430d-b140-8a5e44bc86ea",
            "resource": {
                "resourceType": "ProcedureRequest",
                "id": "ba50b267-3166-430d-b140-8a5e44bc86ea",
                "meta": {
                    "profile": [
                        "https://fhir.hl7.org.uk/STU3/StructureDefinition/CareConnect-ProcedureRequest-1"
                    ]
                },
                "status": "unknown",
                "intent": "order",
                "code": {
                    "text": "unknown"
                },
                "subject": {
                    "reference": "urn:uuid:500ef916-88fe-4dc0-93f8-55202dcb13f3"
                },
                "requester": {
                    "agent": {
                        "reference": "urn:uuid:1e829b38-f70f-4290-b2d0-63511fd2892f"
                    },
                    "onBehalfOf": {
                        "reference": "urn:uuid:b43e1ee6-d6d8-4031-b888-876c89dea9ef"
                    }
                },
                "performer": {
                    "reference": "urn:uuid:a04167bf-727a-4478-83ab-62cd16acadd0"
                },
                "note": [
                    {
                        "text": "COELIAC"
                    }
                ]
            }
        },
        {
            "fullUrl": "urn:uuid:74c86543-00b1-4c44-82c4-7c0e5180e20c",
            "resource": {
                "resourceType": "DiagnosticReport",
                "id": "74c86543-00b1-4c44-82c4-7c0e5180e20c",
                "meta": {
                    "profile": [
                        "https://fhir.hl7.org.uk/STU3/StructureDefinition/CareConnect-DiagnosticReport-1"
                    ]
                },
                "identifier": [
                    {
                        "system": "https://tools.ietf.org/html/rfc4122",
                        "value": "15/CH000040N/200010191704"
                    }
                ],
                "basedOn": [
                    {
                        "reference": "urn:uuid:ba50b267-3166-430d-b140-8a5e44bc86ea"
                    }
                ],
                "status": "unknown",
                "code": {
                    "coding": [
                        {
                            "system": "http://snomed.info/sct",
                            "code": "721981007",
                            "display": "Diagnostic studies report"
                        }
                    ]
                },
                "subject": {
                    "reference": "urn:uuid:500ef916-88fe-4dc0-93f8-55202dcb13f3"
                },
                "issued": "2010-02-25T15:41:00.000+00:00",
                "performer": [
                    {
                        "actor": {
                            "reference": "urn:uuid:be641e29-010c-41c4-b1a4-04c276549045"
                        }
                    },
                    {
                        "actor": {
                            "reference": "urn:uuid:a04167bf-727a-4478-83ab-62cd16acadd0"
                        }
                    }
                ],
                "specimen": [
                    {
                        "reference": "urn:uuid:28cc2668-a77e-4e11-bcb3-fcd837d5f302"
                    }
                ],
                "result": [
                    {
                        "reference": "urn:uuid:3db60b9a-46a4-4aba-b99d-6ef8a6c63adb"
                    }
                ]
            }
        },
        {
            "fullUrl": "urn:uuid:28cc2668-a77e-4e11-bcb3-fcd837d5f302",
            "resource": {
                "resourceType": "Specimen",
                "id": "28cc2668-a77e-4e11-bcb3-fcd837d5f302",
                "meta": {
                    "profile": [
                        "https://fhir.hl7.org.uk/STU3/StructureDefinition/CareConnect-Specimen-1"
                    ]
                },
                "accessionIdentifier": {
                    "system": "http://lab.acme.org/specimens/2011",
                    "value": "CH000040NB"
                },
                "type": {
                    "coding": [
                        {
                            "system": "http://snomed.info/sct",
                            "display": "VENOUS BLOOD"
                        }
                    ]
                },
                "subject": {
                    "reference": "urn:uuid:500ef916-88fe-4dc0-93f8-55202dcb13f3"
                }
            }
        },
        {
            "fullUrl": "urn:uuid:3db60b9a-46a4-4aba-b99d-6ef8a6c63adb",
            "resource": {
                "resourceType": "Observation",
                "id": "3db60b9a-46a4-4aba-b99d-6ef8a6c63adb",
                "meta": {
                    "profile": [
                        "https://fhir.hl7.org.uk/STU3/StructureDefinition/CareConnect-Observation-1"
                    ]
                },
                "status": "unknown",
                "code": {
                    "coding": [
                        {
                            "display": "B12/FOLATE"
                        }
                    ]
                },
                "subject": {
                    "reference": "urn:uuid:500ef916-88fe-4dc0-93f8-55202dcb13f3"
                },
                "performer": [
                    {
                        "reference": "urn:uuid:be641e29-010c-41c4-b1a4-04c276549045"
                    },
                    {
                        "reference": "urn:uuid:a04167bf-727a-4478-83ab-62cd16acadd0"
                    }
                ],
                "comment": "Results repeated Low plasma Folate",
                "specimen": {
                    "reference": "urn:uuid:28cc2668-a77e-4e11-bcb3-fcd837d5f302"
                },
                "related": [
                    {
                        "type": "has-member",
                        "target": {
                            "reference": "urn:uuid:0b43a5c9-5c29-48de-afea-b5749f144e61"
                        }
                    },
                    {
                        "type": "has-member",
                        "target": {
                            "reference": "urn:uuid:a9e22840-4352-4688-84aa-f672d09c2ae9"
                        }
                    }
                ]
            }
        },
        {
            "fullUrl": "urn:uuid:0b43a5c9-5c29-48de-afea-b5749f144e61",
            "resource": {
                "resourceType": "Observation",
                "id": "0b43a5c9-5c29-48de-afea-b5749f144e61",
                "meta": {
                    "profile": [
                        "https://fhir.hl7.org.uk/STU3/StructureDefinition/CareConnect-Observation-1"
                    ]
                },
                "status": "unknown",
                "code": {
                    "coding": [
                        {
                            "system": "http://read.info/readv2",
                            "code": "42T..",
                            "display": "Serum vitamin B12"
                        }
                    ]
                },
                "subject": {
                    "reference": "urn:uuid:500ef916-88fe-4dc0-93f8-55202dcb13f3"
                },
                "performer": [
                    {
                        "reference": "urn:uuid:be641e29-010c-41c4-b1a4-04c276549045"
                    },
                    {
                        "reference": "urn:uuid:a04167bf-727a-4478-83ab-62cd16acadd0"
                    }
                ],
                "valueQuantity": {
                    "value": 1001,
                    "unit": "ng/L"
                },
                "specimen": {
                    "reference": "urn:uuid:28cc2668-a77e-4e11-bcb3-fcd837d5f302"
                },
                "referenceRange": [
                    {
                        "low": {
                            "value": 170
                        },
                        "high": {
                            "value": 1100
                        }
                    }
                ],
                "related": [
                    {
                        "target": {
                            "reference": "urn:uuid:3db60b9a-46a4-4aba-b99d-6ef8a6c63adb"
                        }
                    }
                ]
            }
        },
        {
            "fullUrl": "urn:uuid:a9e22840-4352-4688-84aa-f672d09c2ae9",
            "resource": {
                "resourceType": "Observation",
                "id": "a9e22840-4352-4688-84aa-f672d09c2ae9",
                "meta": {
                    "profile": [
                        "https://fhir.hl7.org.uk/STU3/StructureDefinition/CareConnect-Observation-1"
                    ]
                },
                "status": "unknown",
                "code": {
                    "coding": [
                        {
                            "system": "http://read.info/readv2",
                            "code": "42UE.",
                            "display": "Plasma folate level"
                        }
                    ]
                },
                "subject": {
                    "reference": "urn:uuid:500ef916-88fe-4dc0-93f8-55202dcb13f3"
                },
                "performer": [
                    {
                        "reference": "urn:uuid:be641e29-010c-41c4-b1a4-04c276549045"
                    },
                    {
                        "reference": "urn:uuid:a04167bf-727a-4478-83ab-62cd16acadd0"
                    }
                ],
                "valueQuantity": {
                    "value": 0.8,
                    "unit": "ng/mL"
                },
                "specimen": {
                    "reference": "urn:uuid:28cc2668-a77e-4e11-bcb3-fcd837d5f302"
                },
                "referenceRange": [
                    {
                        "low": {
                            "value": 2.0
                        },
                        "high": {
                            "value": 20.0
                        }
                    }
                ],
                "related": [
                    {
                        "target": {
                            "reference": "urn:uuid:3db60b9a-46a4-4aba-b99d-6ef8a6c63adb"
                        }
                    }
                ]
            }
        }
    ]
}