{
  "resourceType": "Bundle",
  "id": "661a0aea-c425-4a80-91cf-de6cc47f7df9",
  "meta": {
    "lastUpdated": "2021-03-08T12:43:29.733+00:00",
    "profile": [
      "https://fhir.nhs.uk/STU3/StructureDefinition/ITK-Message-Bundle-1"
    ]
  },
  "identifier": {
    "system": "https://tools.ietf.org/html/rfc4122",
    "value": "09c2bba4-48d6-4f0d-b4dc-d33ceed8b21d"
  },
  "type": "message",
  "entry": [
    {
      "fullUrl": "urn:uuid:95ec28bb-cb1c-4bec-8321-568be9ae6eca",
      "resource": {
        "resourceType": "Patient",
        "id": "95ec28bb-cb1c-4bec-8321-568be9ae6eca",
        "identifier": [
          {
            "system": "https://fhir.nhs.uk/Id/nhs-number",
            "value": "9435492908"
          }
        ],
        "name": [
          {
            "family": "TALEBI",
            "given": [
              "WASEEMA"
            ]
          }
        ],
        "gender": "female",
        "birthDate": "1961-08-14",
        "address": [
          {
            "line": [
              "FLAT1",
              "29 COPPICE WOOD GROVE",
              "LEEDS"
            ],
            "postalCode": "LS20 9JU"
          }
        ]
      }
    },
    {
      "fullUrl": "urn:uuid:10fa1513-0a76-4296-92ef-06eaa1b3f5c4",
      "resource": {
        "resourceType": "Practitioner",
        "id": "10fa1513-0a76-4296-92ef-06eaa1b3f5c4",
        "identifier": [
          {
            "system": "https://fhir.nhs.uk/Id/sds-user-id",
            "value": "G3380314"
          }
        ],
        "name": [
          {
            "text": "SCOTT"
          }
        ]
      }
    },
    {
      "fullUrl": "urn:uuid:98c26f9a-20c3-4609-80b7-802817717c18",
      "resource": {
        "resourceType": "Organization",
        "id": "98c26f9a-20c3-4609-80b7-802817717c18",
        "type": [
          {
            "coding": [
              {
                "code": "dept",
                "display": "HAEMATOLOGY"
              }
            ]
          }
        ],
        "name": "ST JAMES'S UNIVERSITY HOSPITAL"
      }
    },
    {
      "fullUrl": "urn:uuid:d25187de-ce0a-4eea-838b-e7569d03cfec",
      "resource": {
        "resourceType": "ProcedureRequest",
        "id": "d25187de-ce0a-4eea-838b-e7569d03cfec",
        "status": "unknown",
        "intent": "original-order",
        "code": {
          "text": "unknown"
        },
        "subject": {
          "reference": "urn:uuid:95ec28bb-cb1c-4bec-8321-568be9ae6eca"
        },
        "requester": {
          "agent": {
            "reference": "urn:uuid:10fa1513-0a76-4296-92ef-06eaa1b3f5c4"
          }
        },
        "performer": {
          "reference": "urn:uuid:98c26f9a-20c3-4609-80b7-802817717c18"
        },
        "note": [
          {
            "text": "COELIAC"
          }
        ]
      }
    },
    {
      "fullUrl": "urn:uuid:1c2ffccb-186a-4193-a12e-f1b2c0bb6cee",
      "resource": {
        "resourceType": "DiagnosticReport",
        "id": "1c2ffccb-186a-4193-a12e-f1b2c0bb6cee",
        "identifier": [
          {
            "value": "15/CH000040N/200010191704"
          }
        ],
        "basedOn": [
          {
            "reference": "urn:uuid:d25187de-ce0a-4eea-838b-e7569d03cfec"
          }
        ],
        "status": "unknown",
        "code": {
          "coding": [
            {
              "system": "http://snomed.info/sct",
              "code": "721981007",
              "display": "Diagnostic studies report"
            }
          ]
        },
        "subject": {
          "reference": "urn:uuid:95ec28bb-cb1c-4bec-8321-568be9ae6eca"
        },
        "issued": "2010-02-25T15:41:00.000+00:00",
        "performer": [
          {
            "actor": {
              "reference": "urn:uuid:98c26f9a-20c3-4609-80b7-802817717c18"
            }
          }
        ],
        "specimen": [
          {
            "reference": "urn:uuid:fa1bae56-fc54-48e1-b7a6-6a9060345055"
          }
        ],
        "result": [
          {
            "reference": "urn:uuid:bc127c04-f722-4bff-b3c0-ab2a0b615f9a"
          }
        ]
      }
    },
    {
      "fullUrl": "urn:uuid:fa1bae56-fc54-48e1-b7a6-6a9060345055",
      "resource": {
        "resourceType": "Specimen",
        "id": "fa1bae56-fc54-48e1-b7a6-6a9060345055",
        "accessionIdentifier": {
          "system": "http://lab.acme.org/specimens/2011",
          "value": "CH000040NB"
        },
        "type": {
          "coding": [
            {
              "system": "http://snomed.info/sct",
              "display": "VENOUS BLOOD"
            }
          ]
        },
        "subject": {
          "reference": "urn:uuid:95ec28bb-cb1c-4bec-8321-568be9ae6eca"
        }
      }
    },
    {
      "fullUrl": "urn:uuid:bc127c04-f722-4bff-b3c0-ab2a0b615f9a",
      "resource": {
        "resourceType": "Observation",
        "id": "bc127c04-f722-4bff-b3c0-ab2a0b615f9a",
        "status": "unknown",
        "code": {
          "coding": [
            {
              "display": "B12/FOLATE"
            }
          ]
        },
        "subject": {
          "reference": "urn:uuid:95ec28bb-cb1c-4bec-8321-568be9ae6eca"
        },
        "performer": [
          {
            "reference": "urn:uuid:98c26f9a-20c3-4609-80b7-802817717c18"
          }
        ],
        "comment": "Results repeated Low plasma Folate",
        "specimen": {
          "reference": "urn:uuid:fa1bae56-fc54-48e1-b7a6-6a9060345055"
        },
        "related": [
          {
            "type": "has-member",
            "target": {
              "reference": "urn:uuid:10313846-52e2-4937-bd59-c92f7529cd4e"
            }
          },
          {
            "type": "has-member",
            "target": {
              "reference": "urn:uuid:d5c70985-8b33-47c5-b8a4-5dbe110ab43e"
            }
          }
        ]
      }
    },
    {
      "fullUrl": "urn:uuid:10313846-52e2-4937-bd59-c92f7529cd4e",
      "resource": {
        "resourceType": "Observation",
        "id": "10313846-52e2-4937-bd59-c92f7529cd4e",
        "status": "unknown",
        "code": {
          "coding": [
            {
              "system": "http://read.info/readv2",
              "code": "42T..",
              "display": "Serum vitamin B12"
            }
          ]
        },
        "subject": {
          "reference": "urn:uuid:95ec28bb-cb1c-4bec-8321-568be9ae6eca"
        },
        "performer": [
          {
            "reference": "urn:uuid:98c26f9a-20c3-4609-80b7-802817717c18"
          }
        ],
        "valueQuantity": {
          "value": 1001,
          "unit": "ng/L"
        },
        "specimen": {
          "reference": "urn:uuid:fa1bae56-fc54-48e1-b7a6-6a9060345055"
        },
        "referenceRange": [
          {
            "low": {
              "value": 170
            },
            "high": {
              "value": 1100
            }
          }
        ],
        "related": [
          {
            "target": {
              "reference": "urn:uuid:bc127c04-f722-4bff-b3c0-ab2a0b615f9a"
            }
          }
        ]
      }
    },
    {
      "fullUrl": "urn:uuid:d5c70985-8b33-47c5-b8a4-5dbe110ab43e",
      "resource": {
        "resourceType": "Observation",
        "id": "d5c70985-8b33-47c5-b8a4-5dbe110ab43e",
        "status": "unknown",
        "code": {
          "coding": [
            {
              "system": "http://read.info/readv2",
              "code": "42UE.",
              "display": "Plasma folate level"
            }
          ]
        },
        "subject": {
          "reference": "urn:uuid:95ec28bb-cb1c-4bec-8321-568be9ae6eca"
        },
        "performer": [
          {
            "reference": "urn:uuid:98c26f9a-20c3-4609-80b7-802817717c18"
          }
        ],
        "valueQuantity": {
          "value": 0.8,
          "unit": "ng/mL"
        },
        "specimen": {
          "reference": "urn:uuid:fa1bae56-fc54-48e1-b7a6-6a9060345055"
        },
        "referenceRange": [
          {
            "low": {
              "value": 2.0
            },
            "high": {
              "value": 20.0
            }
          }
        ],
        "related": [
          {
            "target": {
              "reference": "urn:uuid:bc127c04-f722-4bff-b3c0-ab2a0b615f9a"
            }
          }
        ]
      }
    }
  ]
}