{
    "resourceType": "Bundle",
    "id": "c12bf139-ab7b-43a1-914a-70179cc1789f",
    "meta": {
        "lastUpdated": "2021-06-07T12:29:49.114+01:00",
        "profile": [ "https://fhir.nhs.uk/STU3/StructureDefinition/ITK-Message-Bundle-1" ]
    },
    "identifier": {
        "system": "https://tools.ietf.org/html/rfc4122",
        "value": "7da54d2d-0729-4de3-bb2a-d8cd279e467a"
    },
    "type": "message",
    "entry": [ {
        "fullUrl": "urn:uuid:cbfceba0-35f1-41ae-9b98-ee9c976928eb",
        "resource": {
            "resourceType": "MessageHeader",
            "id": "cbfceba0-35f1-41ae-9b98-ee9c976928eb",
            "meta": {
                "profile": [ "https://fhir.nhs.uk/STU3/StructureDefinition/ITK-MessageHeader-2" ]
            },
            "extension": [ {
                "url": "https://fhir.nhs.uk/STU3/StructureDefinition/Extension-ITK-MessageHandling-2",
                "extension": [ {
                    "url": "BusAckRequested",
                    "valueBoolean": true
                }, {
                    "url": "InfAckRequested",
                    "valueBoolean": true
                }, {
                    "url": "RecipientType",
                    "valueCoding": {
                        "system": "https://fhir.nhs.uk/STU3/CodeSystem/ITK-RecipientType-1",
                        "code": "FA",
                        "display": "For Action"
                    }
                }, {
                    "url": "SenderReference",
                    "valueString": "None"
                }, {
                    "url": "LocalExtension",
                    "valueString": "None"
                } ]
            } ],
            "event": {
                "system": "https://fhir.nhs.uk/STU3/CodeSystem/ITK-MessageEvent-2",
                "code": "ITK012M",
                "display": "ITK National Pathology"
            },
            "receiver": {
                "reference": "urn:uuid:5290679d-7edd-4b0c-8e64-23c9e83dca87"
            },
            "sender": {
                "reference": "urn:uuid:2345bb07-0385-496b-87c3-8b1a7229f440"
            },
            "timestamp": "2010-03-01T17:51:00.000+00:00",
            "source": {
                "endpoint": "lab_results_mailbox"
            },
            "responsible": {
                "reference": "urn:uuid:2345bb07-0385-496b-87c3-8b1a7229f440"
            },
            "focus": [ {
                "reference": "urn:uuid:9c5b973e-2c93-4efa-b204-73d1d94176cf"
            } ]
        }
    }, {
        "fullUrl": "urn:uuid:94eb058b-1c2f-49e5-b45f-6c7809abd948",
        "resource": {
            "resourceType": "Patient",
            "id": "94eb058b-1c2f-49e5-b45f-6c7809abd948",
            "meta": {
                "profile": [ "https://fhir.hl7.org.uk/STU3/StructureDefinition/CareConnect-Patient-1" ]
            },
            "identifier": [ {
                "id": "Z77553311"
            } ],
            "name": [ {
                "use": "official",
                "family": "SPRINGATE",
                "given": [ "SYDNEY" ]
            } ],
            "birthDate": "1962-11-01",
            "address": [ {
                "line": [ "FLAT1", "1 LUMBY", "PUDSEY", "LEEDS" ],
                "postalCode": "LS25 5PR"
            } ]
        }
    }, {
        "fullUrl": "urn:uuid:7c3ac04a-d44a-4161-b6fe-e08bbae4c2b0",
        "resource": {
            "resourceType": "Practitioner",
            "id": "7c3ac04a-d44a-4161-b6fe-e08bbae4c2b0",
            "meta": {
                "profile": [ "https://fhir.hl7.org.uk/STU3/StructureDefinition/CareConnect-Practitioner-1" ]
            },
            "identifier": [ {
                "value": "G3380314"
            } ],
            "name": [ {
                "text": "SCOTT"
            } ]
        }
    }, {
        "fullUrl": "urn:uuid:5290679d-7edd-4b0c-8e64-23c9e83dca87",
        "resource": {
            "resourceType": "Organization",
            "id": "5290679d-7edd-4b0c-8e64-23c9e83dca87",
            "meta": {
                "profile": [ "https://fhir.hl7.org.uk/STU3/StructureDefinition/CareConnect-Organization-1" ]
            }
        }
    }, {
        "fullUrl": "urn:uuid:d48ec06d-9512-40a4-a962-70c169bd8bd2",
        "resource": {
            "resourceType": "Practitioner",
            "id": "d48ec06d-9512-40a4-a962-70c169bd8bd2",
            "meta": {
                "profile": [ "https://fhir.hl7.org.uk/STU3/StructureDefinition/CareConnect-Practitioner-1" ]
            }
        }
    }, {
        "fullUrl": "urn:uuid:2345bb07-0385-496b-87c3-8b1a7229f440",
        "resource": {
            "resourceType": "Organization",
            "id": "2345bb07-0385-496b-87c3-8b1a7229f440",
            "meta": {
                "profile": [ "https://fhir.hl7.org.uk/STU3/StructureDefinition/CareConnect-Organization-1" ]
            },
            "type": [ {
                "coding": [ {
                    "code": "dept",
                    "display": "Haematology Dept."
                } ]
            } ],
            "name": "ST JAMES'S UNIVERSITY HOSPITAL"
        }
    }, {
        "fullUrl": "urn:uuid:032d5fb2-8b30-46f2-88ef-5f339e4f292e",
        "resource": {
            "resourceType": "ProcedureRequest",
            "id": "032d5fb2-8b30-46f2-88ef-5f339e4f292e",
            "meta": {
                "profile": [ "https://fhir.hl7.org.uk/STU3/StructureDefinition/CareConnect-ProcedureRequest-1" ]
            },
            "status": "unknown",
            "intent": "order",
            "code": {
                "coding": [ {
                    "system": "http://snomed.info/sct",
                    "code": "15220000",
                    "display": "Laboratory test (procedure)"
                } ]
            },
            "subject": {
                "reference": "urn:uuid:94eb058b-1c2f-49e5-b45f-6c7809abd948"
            },
            "requester": {
                "agent": {
                    "reference": "urn:uuid:7c3ac04a-d44a-4161-b6fe-e08bbae4c2b0"
                },
                "onBehalfOf": {
                    "reference": "urn:uuid:5290679d-7edd-4b0c-8e64-23c9e83dca87"
                }
            },
            "performer": {
                "reference": "urn:uuid:d48ec06d-9512-40a4-a962-70c169bd8bd2"
            },
            "note": [ {
                "text": "ON AZATHIOPRINE"
            } ]
        }
    }, {
        "fullUrl": "urn:uuid:9c5b973e-2c93-4efa-b204-73d1d94176cf",
        "resource": {
            "resourceType": "DiagnosticReport",
            "id": "9c5b973e-2c93-4efa-b204-73d1d94176cf",
            "meta": {
                "profile": [ "https://fhir.hl7.org.uk/STU3/StructureDefinition/CareConnect-DiagnosticReport-1" ]
            },
            "identifier": [ {
                "system": "https://tools.ietf.org/html/rfc4122",
                "value": "15/CH000041O/200010191704"
            } ],
            "basedOn": [ {
                "reference": "urn:uuid:032d5fb2-8b30-46f2-88ef-5f339e4f292e"
            } ],
            "status": "unknown",
            "code": {
                "coding": [ {
                    "system": "http://snomed.info/sct",
                    "code": "721981007",
                    "display": "Diagnostic studies report"
                } ]
            },
            "subject": {
                "reference": "urn:uuid:94eb058b-1c2f-49e5-b45f-6c7809abd948"
            },
            "issued": "2010-02-25T15:41:00.000+00:00",
            "performer": [ {
                "actor": {
                    "reference": "urn:uuid:2345bb07-0385-496b-87c3-8b1a7229f440"
                }
            }, {
                "actor": {
                    "reference": "urn:uuid:d48ec06d-9512-40a4-a962-70c169bd8bd2"
                }
            } ],
            "specimen": [ {
                "reference": "urn:uuid:b077a34a-1bd9-4825-9c75-7523ed2dac1b"
            } ],
            "result": [ {
                "reference": "urn:uuid:d8ba19cd-60c3-4f92-82f9-99483cc9f98c"
            } ]
        }
    }, {
        "fullUrl": "urn:uuid:b077a34a-1bd9-4825-9c75-7523ed2dac1b",
        "resource": {
            "resourceType": "Specimen",
            "id": "b077a34a-1bd9-4825-9c75-7523ed2dac1b",
            "meta": {
                "profile": [ "https://fhir.hl7.org.uk/STU3/StructureDefinition/CareConnect-Specimen-1" ]
            },
            "accessionIdentifier": {
                "value": "CH000041OC"
            },
            "type": {
                "coding": [ {
                    "system": "http://snomed.info/sct",
                    "display": "VENOUS BLOOD"
                } ]
            },
            "subject": {
                "reference": "urn:uuid:94eb058b-1c2f-49e5-b45f-6c7809abd948"
            },
            "collection": {
                "collectedDateTime": "2010-02-23"
            }
        }
    }, {
        "fullUrl": "urn:uuid:d8ba19cd-60c3-4f92-82f9-99483cc9f98c",
        "resource": {
            "resourceType": "Observation",
            "id": "d8ba19cd-60c3-4f92-82f9-99483cc9f98c",
            "meta": {
                "profile": [ "https://fhir.hl7.org.uk/STU3/StructureDefinition/CareConnect-Observation-1" ]
            },
            "status": "unknown",
            "code": {
                "coding": [ {
                    "system": "http://read.info/readv2",
                    "code": "424..",
                    "display": "Full blood count - FBC"
                } ]
            },
            "subject": {
                "reference": "urn:uuid:94eb058b-1c2f-49e5-b45f-6c7809abd948"
            },
            "performer": [ {
                "reference": "urn:uuid:2345bb07-0385-496b-87c3-8b1a7229f440"
            }, {
                "reference": "urn:uuid:d48ec06d-9512-40a4-a962-70c169bd8bd2"
            } ],
            "specimen": {
                "reference": "urn:uuid:b077a34a-1bd9-4825-9c75-7523ed2dac1b"
            },
            "related": [ {
                "type": "has-member",
                "target": {
                    "reference": "urn:uuid:571348f5-426b-46f2-8d64-27d9a92c2e1a"
                }
            }, {
                "type": "has-member",
                "target": {
                    "reference": "urn:uuid:5c2efa7f-8bde-469f-b498-209bfd5d53b6"
                }
            }, {
                "type": "has-member",
                "target": {
                    "reference": "urn:uuid:fceb6a12-0465-4728-a059-325226676e7d"
                }
            }, {
                "type": "has-member",
                "target": {
                    "reference": "urn:uuid:39bc28c7-35af-4fe9-a3d6-82459e62a8ad"
                }
            }, {
                "type": "has-member",
                "target": {
                    "reference": "urn:uuid:42606b62-e7e2-4056-a838-4a49295e104f"
                }
            }, {
                "type": "has-member",
                "target": {
                    "reference": "urn:uuid:89eb0da9-7abd-4c38-958f-222271cf3ef4"
                }
            }, {
                "type": "has-member",
                "target": {
                    "reference": "urn:uuid:917699fd-3d70-49d2-a0f9-cde497f09b80"
                }
            }, {
                "type": "has-member",
                "target": {
                    "reference": "urn:uuid:fbb7dada-1539-4b9b-ba89-11c9ce491d06"
                }
            }, {
                "type": "has-member",
                "target": {
                    "reference": "urn:uuid:67faa935-fc55-4abd-b68c-718200f910b0"
                }
            }, {
                "type": "has-member",
                "target": {
                    "reference": "urn:uuid:036f1674-fe9a-473e-9ed3-14af049a5555"
                }
            }, {
                "type": "has-member",
                "target": {
                    "reference": "urn:uuid:34f11ef2-3677-4153-a3f9-47df53575e79"
                }
            }, {
                "type": "has-member",
                "target": {
                    "reference": "urn:uuid:6caf485f-7a7c-4940-a544-a128f7f956dd"
                }
            }, {
                "type": "has-member",
                "target": {
                    "reference": "urn:uuid:23828ab4-4108-40ac-99d0-29582c0098dd"
                }
            } ]
        }
    }, {
        "fullUrl": "urn:uuid:571348f5-426b-46f2-8d64-27d9a92c2e1a",
        "resource": {
            "resourceType": "Observation",
            "id": "571348f5-426b-46f2-8d64-27d9a92c2e1a",
            "meta": {
                "profile": [ "https://fhir.hl7.org.uk/STU3/StructureDefinition/CareConnect-Observation-1" ]
            },
            "status": "unknown",
            "code": {
                "coding": [ {
                    "system": "http://read.info/readv2",
                    "code": "42H..",
                    "display": "Total white cell count"
                } ]
            },
            "subject": {
                "reference": "urn:uuid:94eb058b-1c2f-49e5-b45f-6c7809abd948"
            },
            "performer": [ {
                "reference": "urn:uuid:2345bb07-0385-496b-87c3-8b1a7229f440"
            }, {
                "reference": "urn:uuid:d48ec06d-9512-40a4-a962-70c169bd8bd2"
            } ],
            "valueQuantity": {
                "value": 7.6,
                "unit": "10*9/L"
            },
            "specimen": {
                "reference": "urn:uuid:b077a34a-1bd9-4825-9c75-7523ed2dac1b"
            },
            "referenceRange": [ {
                "low": {
                    "value": 4.0
                },
                "high": {
                    "value": 11.0
                }
            } ],
            "related": [ {
                "target": {
                    "reference": "urn:uuid:d8ba19cd-60c3-4f92-82f9-99483cc9f98c"
                }
            } ]
        }
    }, {
        "fullUrl": "urn:uuid:5c2efa7f-8bde-469f-b498-209bfd5d53b6",
        "resource": {
            "resourceType": "Observation",
            "id": "5c2efa7f-8bde-469f-b498-209bfd5d53b6",
            "meta": {
                "profile": [ "https://fhir.hl7.org.uk/STU3/StructureDefinition/CareConnect-Observation-1" ]
            },
            "status": "unknown",
            "code": {
                "coding": [ {
                    "system": "http://read.info/readv2",
                    "code": "426..",
                    "display": "Red blood cell (RBC) count"
                } ]
            },
            "subject": {
                "reference": "urn:uuid:94eb058b-1c2f-49e5-b45f-6c7809abd948"
            },
            "performer": [ {
                "reference": "urn:uuid:2345bb07-0385-496b-87c3-8b1a7229f440"
            }, {
                "reference": "urn:uuid:d48ec06d-9512-40a4-a962-70c169bd8bd2"
            } ],
            "valueQuantity": {
                "value": 2.84,
                "unit": "10*12/L"
            },
            "interpretation": {
                "coding": [ {
                    "system": "http://hl7.org/fhir/v2/0078",
                    "code": "L",
                    "display": "Low"
                } ]
            },
            "specimen": {
                "reference": "urn:uuid:b077a34a-1bd9-4825-9c75-7523ed2dac1b"
            },
            "referenceRange": [ {
                "low": {
                    "value": 3.8
                },
                "high": {
                    "value": 5.4
                }
            } ],
            "related": [ {
                "target": {
                    "reference": "urn:uuid:d8ba19cd-60c3-4f92-82f9-99483cc9f98c"
                }
            } ]
        }
    }, {
        "fullUrl": "urn:uuid:fceb6a12-0465-4728-a059-325226676e7d",
        "resource": {
            "resourceType": "Observation",
            "id": "fceb6a12-0465-4728-a059-325226676e7d",
            "meta": {
                "profile": [ "https://fhir.hl7.org.uk/STU3/StructureDefinition/CareConnect-Observation-1" ]
            },
            "status": "unknown",
            "code": {
                "coding": [ {
                    "system": "http://read.info/readv2",
                    "code": "423..",
                    "display": "Haemoglobin estimation"
                } ]
            },
            "subject": {
                "reference": "urn:uuid:94eb058b-1c2f-49e5-b45f-6c7809abd948"
            },
            "performer": [ {
                "reference": "urn:uuid:2345bb07-0385-496b-87c3-8b1a7229f440"
            }, {
                "reference": "urn:uuid:d48ec06d-9512-40a4-a962-70c169bd8bd2"
            } ],
            "valueQuantity": {
                "value": 11.0,
                "unit": "g/dL"
            },
            "specimen": {
                "reference": "urn:uuid:b077a34a-1bd9-4825-9c75-7523ed2dac1b"
            },
            "referenceRange": [ {
                "low": {
                    "value": 10.5
                },
                "high": {
                    "value": 15.0
                }
            } ],
            "related": [ {
                "target": {
                    "reference": "urn:uuid:d8ba19cd-60c3-4f92-82f9-99483cc9f98c"
                }
            } ]
        }
    }, {
        "fullUrl": "urn:uuid:39bc28c7-35af-4fe9-a3d6-82459e62a8ad",
        "resource": {
            "resourceType": "Observation",
            "id": "39bc28c7-35af-4fe9-a3d6-82459e62a8ad",
            "meta": {
                "profile": [ "https://fhir.hl7.org.uk/STU3/StructureDefinition/CareConnect-Observation-1" ]
            },
            "status": "unknown",
            "code": {
                "coding": [ {
                    "system": "http://read.info/readv2",
                    "code": "4258.",
                    "display": "Haematocrit"
                } ]
            },
            "subject": {
                "reference": "urn:uuid:94eb058b-1c2f-49e5-b45f-6c7809abd948"
            },
            "performer": [ {
                "reference": "urn:uuid:2345bb07-0385-496b-87c3-8b1a7229f440"
            }, {
                "reference": "urn:uuid:d48ec06d-9512-40a4-a962-70c169bd8bd2"
            } ],
            "valueQuantity": {
                "value": 0.315,
                "unit": "%"
            },
            "interpretation": {
                "coding": [ {
                    "system": "http://hl7.org/fhir/v2/0078",
                    "code": "L",
                    "display": "Low"
                } ]
            },
            "specimen": {
                "reference": "urn:uuid:b077a34a-1bd9-4825-9c75-7523ed2dac1b"
            },
            "referenceRange": [ {
                "low": {
                    "value": 0.370
                },
                "high": {
                    "value": 0.470
                }
            } ],
            "related": [ {
                "target": {
                    "reference": "urn:uuid:d8ba19cd-60c3-4f92-82f9-99483cc9f98c"
                }
            } ]
        }
    }, {
        "fullUrl": "urn:uuid:42606b62-e7e2-4056-a838-4a49295e104f",
        "resource": {
            "resourceType": "Observation",
            "id": "42606b62-e7e2-4056-a838-4a49295e104f",
            "meta": {
                "profile": [ "https://fhir.hl7.org.uk/STU3/StructureDefinition/CareConnect-Observation-1" ]
            },
            "status": "unknown",
            "code": {
                "coding": [ {
                    "system": "http://read.info/readv2",
                    "code": "42A..",
                    "display": "Mean corpuscular volume (MCV)"
                } ]
            },
            "subject": {
                "reference": "urn:uuid:94eb058b-1c2f-49e5-b45f-6c7809abd948"
            },
            "performer": [ {
                "reference": "urn:uuid:2345bb07-0385-496b-87c3-8b1a7229f440"
            }, {
                "reference": "urn:uuid:d48ec06d-9512-40a4-a962-70c169bd8bd2"
            } ],
            "valueQuantity": {
                "value": 111.1,
                "unit": "fL"
            },
            "interpretation": {
                "coding": [ {
                    "system": "http://hl7.org/fhir/v2/0078",
                    "code": "H",
                    "display": "High"
                } ]
            },
            "specimen": {
                "reference": "urn:uuid:b077a34a-1bd9-4825-9c75-7523ed2dac1b"
            },
            "referenceRange": [ {
                "low": {
                    "value": 76
                },
                "high": {
                    "value": 100
                }
            } ],
            "related": [ {
                "target": {
                    "reference": "urn:uuid:d8ba19cd-60c3-4f92-82f9-99483cc9f98c"
                }
            } ]
        }
    }, {
        "fullUrl": "urn:uuid:89eb0da9-7abd-4c38-958f-222271cf3ef4",
        "resource": {
            "resourceType": "Observation",
            "id": "89eb0da9-7abd-4c38-958f-222271cf3ef4",
            "meta": {
                "profile": [ "https://fhir.hl7.org.uk/STU3/StructureDefinition/CareConnect-Observation-1" ]
            },
            "status": "unknown",
            "code": {
                "coding": [ {
                    "system": "http://read.info/readv2",
                    "code": "428..",
                    "display": "Mean corpusc. haemoglobin(MCH)"
                } ]
            },
            "subject": {
                "reference": "urn:uuid:94eb058b-1c2f-49e5-b45f-6c7809abd948"
            },
            "performer": [ {
                "reference": "urn:uuid:2345bb07-0385-496b-87c3-8b1a7229f440"
            }, {
                "reference": "urn:uuid:d48ec06d-9512-40a4-a962-70c169bd8bd2"
            } ],
            "valueQuantity": {
                "value": 38.7,
                "unit": "pg"
            },
            "interpretation": {
                "coding": [ {
                    "system": "http://hl7.org/fhir/v2/0078",
                    "code": "H",
                    "display": "High"
                } ]
            },
            "specimen": {
                "reference": "urn:uuid:b077a34a-1bd9-4825-9c75-7523ed2dac1b"
            },
            "referenceRange": [ {
                "low": {
                    "value": 26
                },
                "high": {
                    "value": 32
                }
            } ],
            "related": [ {
                "target": {
                    "reference": "urn:uuid:d8ba19cd-60c3-4f92-82f9-99483cc9f98c"
                }
            } ]
        }
    }, {
        "fullUrl": "urn:uuid:917699fd-3d70-49d2-a0f9-cde497f09b80",
        "resource": {
            "resourceType": "Observation",
            "id": "917699fd-3d70-49d2-a0f9-cde497f09b80",
            "meta": {
                "profile": [ "https://fhir.hl7.org.uk/STU3/StructureDefinition/CareConnect-Observation-1" ]
            },
            "status": "unknown",
            "code": {
                "coding": [ {
                    "system": "http://read.info/readv2",
                    "code": "429..",
                    "display": "Mean corpusc. Hb. conc. (MCHC)"
                } ]
            },
            "subject": {
                "reference": "urn:uuid:94eb058b-1c2f-49e5-b45f-6c7809abd948"
            },
            "performer": [ {
                "reference": "urn:uuid:2345bb07-0385-496b-87c3-8b1a7229f440"
            }, {
                "reference": "urn:uuid:d48ec06d-9512-40a4-a962-70c169bd8bd2"
            } ],
            "valueQuantity": {
                "value": 34.8,
                "unit": "g/dL"
            },
            "specimen": {
                "reference": "urn:uuid:b077a34a-1bd9-4825-9c75-7523ed2dac1b"
            },
            "referenceRange": [ {
                "low": {
                    "value": 30
                },
                "high": {
                    "value": 37
                }
            } ],
            "related": [ {
                "target": {
                    "reference": "urn:uuid:d8ba19cd-60c3-4f92-82f9-99483cc9f98c"
                }
            } ]
        }
    }, {
        "fullUrl": "urn:uuid:fbb7dada-1539-4b9b-ba89-11c9ce491d06",
        "resource": {
            "resourceType": "Observation",
            "id": "fbb7dada-1539-4b9b-ba89-11c9ce491d06",
            "meta": {
                "profile": [ "https://fhir.hl7.org.uk/STU3/StructureDefinition/CareConnect-Observation-1" ]
            },
            "status": "unknown",
            "code": {
                "coding": [ {
                    "system": "http://read.info/readv2",
                    "code": "42P..",
                    "display": "Platelet count"
                } ]
            },
            "subject": {
                "reference": "urn:uuid:94eb058b-1c2f-49e5-b45f-6c7809abd948"
            },
            "performer": [ {
                "reference": "urn:uuid:2345bb07-0385-496b-87c3-8b1a7229f440"
            }, {
                "reference": "urn:uuid:d48ec06d-9512-40a4-a962-70c169bd8bd2"
            } ],
            "valueQuantity": {
                "value": 220,
                "unit": "10*9/L"
            },
            "specimen": {
                "reference": "urn:uuid:b077a34a-1bd9-4825-9c75-7523ed2dac1b"
            },
            "referenceRange": [ {
                "low": {
                    "value": 150
                },
                "high": {
                    "value": 600
                }
            } ],
            "related": [ {
                "target": {
                    "reference": "urn:uuid:d8ba19cd-60c3-4f92-82f9-99483cc9f98c"
                }
            } ]
        }
    }, {
        "fullUrl": "urn:uuid:67faa935-fc55-4abd-b68c-718200f910b0",
        "resource": {
            "resourceType": "Observation",
            "id": "67faa935-fc55-4abd-b68c-718200f910b0",
            "meta": {
                "profile": [ "https://fhir.hl7.org.uk/STU3/StructureDefinition/CareConnect-Observation-1" ]
            },
            "status": "unknown",
            "code": {
                "coding": [ {
                    "system": "http://read.info/readv2",
                    "code": "42J..",
                    "display": "Neutrophil count"
                } ]
            },
            "subject": {
                "reference": "urn:uuid:94eb058b-1c2f-49e5-b45f-6c7809abd948"
            },
            "performer": [ {
                "reference": "urn:uuid:2345bb07-0385-496b-87c3-8b1a7229f440"
            }, {
                "reference": "urn:uuid:d48ec06d-9512-40a4-a962-70c169bd8bd2"
            } ],
            "valueQuantity": {
                "value": 7.4,
                "unit": "10*9/L"
            },
            "specimen": {
                "reference": "urn:uuid:b077a34a-1bd9-4825-9c75-7523ed2dac1b"
            },
            "referenceRange": [ {
                "low": {
                    "value": 2.0
                },
                "high": {
                    "value": 7.5
                }
            } ],
            "related": [ {
                "target": {
                    "reference": "urn:uuid:d8ba19cd-60c3-4f92-82f9-99483cc9f98c"
                }
            } ]
        }
    }, {
        "fullUrl": "urn:uuid:036f1674-fe9a-473e-9ed3-14af049a5555",
        "resource": {
            "resourceType": "Observation",
            "id": "036f1674-fe9a-473e-9ed3-14af049a5555",
            "meta": {
                "profile": [ "https://fhir.hl7.org.uk/STU3/StructureDefinition/CareConnect-Observation-1" ]
            },
            "status": "unknown",
            "code": {
                "coding": [ {
                    "system": "http://read.info/readv2",
                    "code": "42M..",
                    "display": "Lymphocyte count"
                } ]
            },
            "subject": {
                "reference": "urn:uuid:94eb058b-1c2f-49e5-b45f-6c7809abd948"
            },
            "performer": [ {
                "reference": "urn:uuid:2345bb07-0385-496b-87c3-8b1a7229f440"
            }, {
                "reference": "urn:uuid:d48ec06d-9512-40a4-a962-70c169bd8bd2"
            } ],
            "valueQuantity": {
                "value": 0.1,
                "unit": "10*9/L"
            },
            "specimen": {
                "reference": "urn:uuid:b077a34a-1bd9-4825-9c75-7523ed2dac1b"
            },
            "referenceRange": [ {
                "low": {
                    "value": 1.0
                },
                "high": {
                    "value": 4.0
                }
            } ],
            "related": [ {
                "target": {
                    "reference": "urn:uuid:d8ba19cd-60c3-4f92-82f9-99483cc9f98c"
                }
            } ]
        }
    }, {
        "fullUrl": "urn:uuid:34f11ef2-3677-4153-a3f9-47df53575e79",
        "resource": {
            "resourceType": "Observation",
            "id": "34f11ef2-3677-4153-a3f9-47df53575e79",
            "meta": {
                "profile": [ "https://fhir.hl7.org.uk/STU3/StructureDefinition/CareConnect-Observation-1" ]
            },
            "status": "unknown",
            "code": {
                "coding": [ {
                    "system": "http://read.info/readv2",
                    "code": "42N..",
                    "display": "Monocyte count"
                } ]
            },
            "subject": {
                "reference": "urn:uuid:94eb058b-1c2f-49e5-b45f-6c7809abd948"
            },
            "performer": [ {
                "reference": "urn:uuid:2345bb07-0385-496b-87c3-8b1a7229f440"
            }, {
                "reference": "urn:uuid:d48ec06d-9512-40a4-a962-70c169bd8bd2"
            } ],
            "valueQuantity": {
                "value": 0.1,
                "unit": "10*9/L"
            },
            "specimen": {
                "reference": "urn:uuid:b077a34a-1bd9-4825-9c75-7523ed2dac1b"
            },
            "referenceRange": [ {
                "low": {
                    "value": 0.2
                },
                "high": {
                    "value": 1.0
                }
            } ],
            "related": [ {
                "target": {
                    "reference": "urn:uuid:d8ba19cd-60c3-4f92-82f9-99483cc9f98c"
                }
            } ]
        }
    }, {
        "fullUrl": "urn:uuid:6caf485f-7a7c-4940-a544-a128f7f956dd",
        "resource": {
            "resourceType": "Observation",
            "id": "6caf485f-7a7c-4940-a544-a128f7f956dd",
            "meta": {
                "profile": [ "https://fhir.hl7.org.uk/STU3/StructureDefinition/CareConnect-Observation-1" ]
            },
            "status": "unknown",
            "code": {
                "coding": [ {
                    "system": "http://read.info/readv2",
                    "code": "42K..",
                    "display": "Eosinophil count"
                } ]
            },
            "subject": {
                "reference": "urn:uuid:94eb058b-1c2f-49e5-b45f-6c7809abd948"
            },
            "performer": [ {
                "reference": "urn:uuid:2345bb07-0385-496b-87c3-8b1a7229f440"
            }, {
                "reference": "urn:uuid:d48ec06d-9512-40a4-a962-70c169bd8bd2"
            } ],
            "valueQuantity": {
                "value": 0.1,
                "comparator": "<",
                "unit": "10*9/L"
            },
            "specimen": {
                "reference": "urn:uuid:b077a34a-1bd9-4825-9c75-7523ed2dac1b"
            },
            "referenceRange": [ {
                "low": {
                    "value": 0
                },
                "high": {
                    "value": 0.6
                }
            } ],
            "related": [ {
                "target": {
                    "reference": "urn:uuid:d8ba19cd-60c3-4f92-82f9-99483cc9f98c"
                }
            } ]
        }
    }, {
        "fullUrl": "urn:uuid:23828ab4-4108-40ac-99d0-29582c0098dd",
        "resource": {
            "resourceType": "Observation",
            "id": "23828ab4-4108-40ac-99d0-29582c0098dd",
            "meta": {
                "profile": [ "https://fhir.hl7.org.uk/STU3/StructureDefinition/CareConnect-Observation-1" ]
            },
            "status": "unknown",
            "code": {
                "coding": [ {
                    "system": "http://read.info/readv2",
                    "code": "42L..",
                    "display": "Basophil count"
                } ]
            },
            "subject": {
                "reference": "urn:uuid:94eb058b-1c2f-49e5-b45f-6c7809abd948"
            },
            "performer": [ {
                "reference": "urn:uuid:2345bb07-0385-496b-87c3-8b1a7229f440"
            }, {
                "reference": "urn:uuid:d48ec06d-9512-40a4-a962-70c169bd8bd2"
            } ],
            "valueQuantity": {
                "value": 0.0,
                "unit": "10*9/L"
            },
            "specimen": {
                "reference": "urn:uuid:b077a34a-1bd9-4825-9c75-7523ed2dac1b"
            },
            "referenceRange": [ {
                "low": {
                    "value": 0.00
                },
                "high": {
                    "value": 0.3
                }
            } ],
            "related": [ {
                "target": {
                    "reference": "urn:uuid:d8ba19cd-60c3-4f92-82f9-99483cc9f98c"
                }
            } ]
        }
    } ]
}