{
    "resourceType": "Bundle",
    "id": "41d962d4-aaa1-4d77-b5b9-b50493677c9d",
    "meta": {
        "lastUpdated": "2021-05-31T12:46:51.516+01:00",
        "profile": [
            "https://fhir.nhs.uk/STU3/StructureDefinition/ITK-Message-Bundle-1"
        ]
    },
    "identifier": {
        "system": "https://tools.ietf.org/html/rfc4122",
        "value": "44709233-aee0-4ac9-914d-75394e032e74"
    },
    "type": "message",
    "entry": [
        {
            "fullUrl": "urn:uuid:14f6b2b1-d910-4ece-97d8-843fd3595a28",
            "resource": {
                "resourceType": "MessageHeader",
                "id": "14f6b2b1-d910-4ece-97d8-843fd3595a28",
                "meta": {
                    "profile": [
                        "https://fhir.nhs.uk/STU3/StructureDefinition/ITK-MessageHeader-2"
                    ]
                },
                "extension": [
                    {
                        "url": "https://fhir.nhs.uk/STU3/StructureDefinition/Extension-ITK-MessageHandling-2",
                        "extension": [
                            {
                                "url": "BusAckRequested",
                                "valueBoolean": true
                            },
                            {
                                "url": "InfAckRequested",
                                "valueBoolean": true
                            },
                            {
                                "url": "RecipientType",
                                "valueCoding": {
                                    "system": "https://fhir.nhs.uk/STU3/CodeSystem/ITK-RecipientType-1",
                                    "code": "FA",
                                    "display": "For Action"
                                }
                            },
                            {
                                "url": "SenderReference",
                                "valueString": "None"
                            },
                            {
                                "url": "LocalExtension",
                                "valueString": "None"
                            }
                        ]
                    }
                ],
                "event": {
                    "system": "https://fhir.nhs.uk/STU3/CodeSystem/ITK-MessageEvent-2",
                    "code": "ITK012M",
                    "display": "ITK National Pathology"
                },
                "receiver": {
                    "reference": "urn:uuid:2ae4c380-cae8-4fe9-bcd8-43830e42619a"
                },
                "sender": {
                    "reference": "urn:uuid:ff90d163-7341-4a5d-809d-25164bbdf3ff"
                },
                "timestamp": "2010-03-01T17:51:00.000+00:00",
                "source": {
                    "endpoint": "lab_results_mailbox"
                },
                "responsible": {
                    "reference": "urn:uuid:ff90d163-7341-4a5d-809d-25164bbdf3ff"
                },
                "focus": [
                    {
                        "reference": "urn:uuid:4b270fcc-9a23-4ab3-bffc-5dc551823b75"
                    }
                ]
            }
        },
        {
            "fullUrl": "urn:uuid:9d87e26b-1dec-46ad-8aa5-2fe7b8cec03d",
            "resource": {
                "resourceType": "Patient",
                "id": "9d87e26b-1dec-46ad-8aa5-2fe7b8cec03d",
                "meta": {
                    "profile": [
                        "https://fhir.hl7.org.uk/STU3/StructureDefinition/CareConnect-Patient-1"
                    ]
                },
                "identifier": [
                    {
                        "extension": [
                            {
                                "url": "https://fhir.hl7.org.uk/STU3/StructureDefinition/Extension-CareConnect-NHSNumberVerificationStatus-1",
                                "valueCodeableConcept": {
                                    "coding": [
                                        {
                                            "system": "https://fhir.hl7.org.uk/STU3/CodeSystem/CareConnect-NHSNumberVerificationStatus-1",
                                            "code": "01",
                                            "display": "Number present and verified"
                                        }
                                    ]
                                }
                            }
                        ],
                        "system": "https://fhir.nhs.uk/Id/nhs-number",
                        "value": "9435492908"
                    }
                ],
                "name": [
                    {
                        "use": "official",
                        "family": "TALEBI",
                        "given": [
                            "WASEEMA"
                        ]
                    }
                ],
                "gender": "female",
                "birthDate": "1961-08-14",
                "address": [
                    {
                        "line": [
                            "FLAT1",
                            "29 COPPICE WOOD GROVE",
                            "LEEDS"
                        ],
                        "postalCode": "LS20 9JU"
                    }
                ]
            }
        },
        {
            "fullUrl": "urn:uuid:21ee225c-dd85-405f-9af8-c14fe0e2c3af",
            "resource": {
                "resourceType": "Practitioner",
                "id": "21ee225c-dd85-405f-9af8-c14fe0e2c3af",
                "meta": {
                    "profile": [
                        "https://fhir.hl7.org.uk/STU3/StructureDefinition/CareConnect-Practitioner-1"
                    ]
                },
                "identifier": [
                    {
                        "system": "https://fhir.nhs.uk/Id/sds-user-id",
                        "value": "G3380314"
                    }
                ],
                "name": [
                    {
                        "text": "SCOTT"
                    }
                ]
            }
        },
        {
            "fullUrl": "urn:uuid:2ae4c380-cae8-4fe9-bcd8-43830e42619a",
            "resource": {
                "resourceType": "Organization",
                "id": "2ae4c380-cae8-4fe9-bcd8-43830e42619a",
                "meta": {
                    "profile": [
                        "https://fhir.hl7.org.uk/STU3/StructureDefinition/CareConnect-Organization-1"
                    ]
                }
            }
        },
        {
            "fullUrl": "urn:uuid:54f54962-8c69-4dea-9e87-095684c7c67c",
            "resource": {
                "resourceType": "Practitioner",
                "id": "54f54962-8c69-4dea-9e87-095684c7c67c",
                "meta": {
                    "profile": [
                        "https://fhir.hl7.org.uk/STU3/StructureDefinition/CareConnect-Practitioner-1"
                    ]
                }
            }
        },
        {
            "fullUrl": "urn:uuid:ff90d163-7341-4a5d-809d-25164bbdf3ff",
            "resource": {
                "resourceType": "Organization",
                "id": "ff90d163-7341-4a5d-809d-25164bbdf3ff",
                "meta": {
                    "profile": [
                        "https://fhir.hl7.org.uk/STU3/StructureDefinition/CareConnect-Organization-1"
                    ]
                },
                "type": [
                    {
                        "coding": [
                            {
                                "code": "dept",
                                "display": "HAEMATOLOGY"
                            }
                        ]
                    }
                ],
                "name": "ST JAMES'S UNIVERSITY HOSPITAL"
            }
        },
        {
            "fullUrl": "urn:uuid:1cf48666-b3dc-4de5-b0ae-d9b951dc32bf",
            "resource": {
                "resourceType": "ProcedureRequest",
                "id": "1cf48666-b3dc-4de5-b0ae-d9b951dc32bf",
                "meta": {
                    "profile": [
                        "https://fhir.hl7.org.uk/STU3/StructureDefinition/CareConnect-ProcedureRequest-1"
                    ]
                },
                "status": "unknown",
                "intent": "order",
                "code": {
                    "coding": [
                        {
                            "system": "http://snomed.info/sct",
                            "code": "15220000",
                            "display": "Laboratory test (procedure)"
                        }
                    ]
                },
                "subject": {
                    "reference": "urn:uuid:9d87e26b-1dec-46ad-8aa5-2fe7b8cec03d"
                },
                "requester": {
                    "agent": {
                        "reference": "urn:uuid:21ee225c-dd85-405f-9af8-c14fe0e2c3af"
                    },
                    "onBehalfOf": {
                        "reference": "urn:uuid:2ae4c380-cae8-4fe9-bcd8-43830e42619a"
                    }
                },
                "performer": {
                    "reference": "urn:uuid:54f54962-8c69-4dea-9e87-095684c7c67c"
                },
                "note": [
                    {
                        "text": "COELIAC"
                    }
                ]
            }
        },
        {
            "fullUrl": "urn:uuid:4b270fcc-9a23-4ab3-bffc-5dc551823b75",
            "resource": {
                "resourceType": "DiagnosticReport",
                "id": "4b270fcc-9a23-4ab3-bffc-5dc551823b75",
                "meta": {
                    "profile": [
                        "https://fhir.hl7.org.uk/STU3/StructureDefinition/CareConnect-DiagnosticReport-1"
                    ]
                },
                "identifier": [
                    {
                        "system": "https://tools.ietf.org/html/rfc4122",
                        "value": "15/CH000040N/200010191704"
                    }
                ],
                "basedOn": [
                    {
                        "reference": "urn:uuid:1cf48666-b3dc-4de5-b0ae-d9b951dc32bf"
                    }
                ],
                "status": "unknown",
                "code": {
                    "coding": [
                        {
                            "system": "http://snomed.info/sct",
                            "code": "721981007",
                            "display": "Diagnostic studies report"
                        }
                    ]
                },
                "subject": {
                    "reference": "urn:uuid:9d87e26b-1dec-46ad-8aa5-2fe7b8cec03d"
                },
                "issued": "2010-02-25T15:41:00.000+00:00",
                "performer": [
                    {
                        "actor": {
                            "reference": "urn:uuid:ff90d163-7341-4a5d-809d-25164bbdf3ff"
                        }
                    },
                    {
                        "actor": {
                            "reference": "urn:uuid:54f54962-8c69-4dea-9e87-095684c7c67c"
                        }
                    }
                ],
                "specimen": [
                    {
                        "reference": "urn:uuid:b5b0e8d8-78b2-4296-9fde-c448d3d209fa"
                    }
                ],
                "result": [
                    {
                        "reference": "urn:uuid:2053406d-e7d6-45b9-a5bc-1a9ad1c58b21"
                    }
                ]
            }
        },
        {
            "fullUrl": "urn:uuid:b5b0e8d8-78b2-4296-9fde-c448d3d209fa",
            "resource": {
                "resourceType": "Specimen",
                "id": "b5b0e8d8-78b2-4296-9fde-c448d3d209fa",
                "meta": {
                    "profile": [
                        "https://fhir.hl7.org.uk/STU3/StructureDefinition/CareConnect-Specimen-1"
                    ]
                },
                "accessionIdentifier": {
                    "system": "http://lab.acme.org/specimens/2011",
                    "value": "CH000040NB"
                },
                "type": {
                    "coding": [
                        {
                            "system": "http://snomed.info/sct",
                            "display": "VENOUS BLOOD"
                        }
                    ]
                },
                "subject": {
                    "reference": "urn:uuid:9d87e26b-1dec-46ad-8aa5-2fe7b8cec03d"
                }
            }
        },
        {
            "fullUrl": "urn:uuid:2053406d-e7d6-45b9-a5bc-1a9ad1c58b21",
            "resource": {
                "resourceType": "Observation",
                "id": "2053406d-e7d6-45b9-a5bc-1a9ad1c58b21",
                "meta": {
                    "profile": [
                        "https://fhir.hl7.org.uk/STU3/StructureDefinition/CareConnect-Observation-1"
                    ]
                },
                "status": "unknown",
                "code": {
                    "coding": [
                        {
                            "display": "B12/FOLATE"
                        }
                    ]
                },
                "subject": {
                    "reference": "urn:uuid:9d87e26b-1dec-46ad-8aa5-2fe7b8cec03d"
                },
                "performer": [
                    {
                        "reference": "urn:uuid:ff90d163-7341-4a5d-809d-25164bbdf3ff"
                    },
                    {
                        "reference": "urn:uuid:54f54962-8c69-4dea-9e87-095684c7c67c"
                    }
                ],
                "comment": "Results repeated Low plasma Folate",
                "specimen": {
                    "reference": "urn:uuid:b5b0e8d8-78b2-4296-9fde-c448d3d209fa"
                },
                "related": [
                    {
                        "type": "has-member",
                        "target": {
                            "reference": "urn:uuid:775f5bf1-27c4-4fb0-b7b2-af8f49742132"
                        }
                    },
                    {
                        "type": "has-member",
                        "target": {
                            "reference": "urn:uuid:c14c49a1-f390-4078-96f2-2a2f5c1dfefd"
                        }
                    }
                ]
            }
        },
        {
            "fullUrl": "urn:uuid:775f5bf1-27c4-4fb0-b7b2-af8f49742132",
            "resource": {
                "resourceType": "Observation",
                "id": "775f5bf1-27c4-4fb0-b7b2-af8f49742132",
                "meta": {
                    "profile": [
                        "https://fhir.hl7.org.uk/STU3/StructureDefinition/CareConnect-Observation-1"
                    ]
                },
                "status": "unknown",
                "code": {
                    "coding": [
                        {
                            "system": "http://read.info/readv2",
                            "code": "42T..",
                            "display": "Serum vitamin B12"
                        }
                    ]
                },
                "subject": {
                    "reference": "urn:uuid:9d87e26b-1dec-46ad-8aa5-2fe7b8cec03d"
                },
                "performer": [
                    {
                        "reference": "urn:uuid:ff90d163-7341-4a5d-809d-25164bbdf3ff"
                    },
                    {
                        "reference": "urn:uuid:54f54962-8c69-4dea-9e87-095684c7c67c"
                    }
                ],
                "valueQuantity": {
                    "value": 1001,
                    "unit": "ng/L"
                },
                "specimen": {
                    "reference": "urn:uuid:b5b0e8d8-78b2-4296-9fde-c448d3d209fa"
                },
                "referenceRange": [
                    {
                        "low": {
                            "value": 170
                        },
                        "high": {
                            "value": 1100
                        }
                    }
                ],
                "related": [
                    {
                        "target": {
                            "reference": "urn:uuid:2053406d-e7d6-45b9-a5bc-1a9ad1c58b21"
                        }
                    }
                ]
            }
        },
        {
            "fullUrl": "urn:uuid:c14c49a1-f390-4078-96f2-2a2f5c1dfefd",
            "resource": {
                "resourceType": "Observation",
                "id": "c14c49a1-f390-4078-96f2-2a2f5c1dfefd",
                "meta": {
                    "profile": [
                        "https://fhir.hl7.org.uk/STU3/StructureDefinition/CareConnect-Observation-1"
                    ]
                },
                "status": "unknown",
                "code": {
                    "coding": [
                        {
                            "system": "http://read.info/readv2",
                            "code": "42UE.",
                            "display": "Plasma folate level"
                        }
                    ]
                },
                "subject": {
                    "reference": "urn:uuid:9d87e26b-1dec-46ad-8aa5-2fe7b8cec03d"
                },
                "performer": [
                    {
                        "reference": "urn:uuid:ff90d163-7341-4a5d-809d-25164bbdf3ff"
                    },
                    {
                        "reference": "urn:uuid:54f54962-8c69-4dea-9e87-095684c7c67c"
                    }
                ],
                "valueQuantity": {
                    "value": 0.8,
                    "unit": "ng/mL"
                },
                "specimen": {
                    "reference": "urn:uuid:b5b0e8d8-78b2-4296-9fde-c448d3d209fa"
                },
                "referenceRange": [
                    {
                        "low": {
                            "value": 2.0
                        },
                        "high": {
                            "value": 20.0
                        }
                    }
                ],
                "related": [
                    {
                        "target": {
                            "reference": "urn:uuid:2053406d-e7d6-45b9-a5bc-1a9ad1c58b21"
                        }
                    }
                ]
            }
        }
    ]
}