{
    "resourceType": "Bundle",
    "id": "94578c54-6260-4bca-bbcb-fa53d53d6c1c",
    "meta": {
        "lastUpdated": "2021-05-31T12:46:23.544+01:00",
        "profile": [
            "https://fhir.nhs.uk/STU3/StructureDefinition/ITK-Message-Bundle-1"
        ]
    },
    "identifier": {
        "system": "https://tools.ietf.org/html/rfc4122",
        "value": "fb2f2472-468a-48b5-8cfa-973687e4829f"
    },
    "type": "message",
    "entry": [
        {
            "fullUrl": "urn:uuid:ce4356a7-cbdb-4b33-b658-b56096b5eeec",
            "resource": {
                "resourceType": "MessageHeader",
                "id": "ce4356a7-cbdb-4b33-b658-b56096b5eeec",
                "meta": {
                    "profile": [
                        "https://fhir.nhs.uk/STU3/StructureDefinition/ITK-MessageHeader-2"
                    ]
                },
                "extension": [
                    {
                        "url": "https://fhir.nhs.uk/STU3/StructureDefinition/Extension-ITK-MessageHandling-2",
                        "extension": [
                            {
                                "url": "BusAckRequested",
                                "valueBoolean": true
                            },
                            {
                                "url": "InfAckRequested",
                                "valueBoolean": true
                            },
                            {
                                "url": "RecipientType",
                                "valueCoding": {
                                    "system": "https://fhir.nhs.uk/STU3/CodeSystem/ITK-RecipientType-1",
                                    "code": "FA",
                                    "display": "For Action"
                                }
                            },
                            {
                                "url": "SenderReference",
                                "valueString": "None"
                            },
                            {
                                "url": "LocalExtension",
                                "valueString": "None"
                            }
                        ]
                    }
                ],
                "event": {
                    "system": "https://fhir.nhs.uk/STU3/CodeSystem/ITK-MessageEvent-2",
                    "code": "ITK012M",
                    "display": "ITK National Pathology"
                },
                "receiver": {
                    "reference": "urn:uuid:0a163c9d-1b2d-4705-8430-c023ed824c1a"
                },
                "sender": {
                    "reference": "urn:uuid:538c3059-c1cb-4384-b947-a7d956f44418"
                },
                "timestamp": "2010-03-01T17:51:00.000+00:00",
                "source": {
                    "endpoint": "lab_results_mailbox"
                },
                "responsible": {
                    "reference": "urn:uuid:538c3059-c1cb-4384-b947-a7d956f44418"
                },
                "focus": [
                    {
                        "reference": "urn:uuid:95ab440d-d274-4a17-9af5-f38146db5823"
                    }
                ]
            }
        },
        {
            "fullUrl": "urn:uuid:03e257c4-4ed7-4812-8a0d-92b5a4f275df",
            "resource": {
                "resourceType": "Patient",
                "id": "03e257c4-4ed7-4812-8a0d-92b5a4f275df",
                "meta": {
                    "profile": [
                        "https://fhir.hl7.org.uk/STU3/StructureDefinition/CareConnect-Patient-1"
                    ]
                },
                "identifier": [
                    {
                        "extension": [
                            {
                                "url": "https://fhir.hl7.org.uk/STU3/StructureDefinition/Extension-CareConnect-NHSNumberVerificationStatus-1",
                                "valueCodeableConcept": {
                                    "coding": [
                                        {
                                            "system": "https://fhir.hl7.org.uk/STU3/CodeSystem/CareConnect-NHSNumberVerificationStatus-1",
                                            "code": "01",
                                            "display": "Number present and verified"
                                        }
                                    ]
                                }
                            }
                        ],
                        "system": "https://fhir.nhs.uk/Id/nhs-number",
                        "value": "9435492908"
                    }
                ],
                "name": [
                    {
                        "use": "official",
                        "family": "TALEBI",
                        "given": [
                            "WASEEMA"
                        ]
                    }
                ],
                "gender": "female",
                "birthDate": "1961-08-14",
                "address": [
                    {
                        "line": [
                            "FLAT1",
                            "29 COPPICE WOOD GROVE",
                            "LEEDS"
                        ],
                        "postalCode": "LS20 9JU"
                    }
                ]
            }
        },
        {
            "fullUrl": "urn:uuid:29d010a3-2899-4189-9ca8-573447c9b6d1",
            "resource": {
                "resourceType": "Practitioner",
                "id": "29d010a3-2899-4189-9ca8-573447c9b6d1",
                "meta": {
                    "profile": [
                        "https://fhir.hl7.org.uk/STU3/StructureDefinition/CareConnect-Practitioner-1"
                    ]
                },
                "identifier": [
                    {
                        "system": "https://fhir.nhs.uk/Id/sds-user-id",
                        "value": "G3380314"
                    }
                ],
                "name": [
                    {
                        "text": "SCOTT"
                    }
                ]
            }
        },
        {
            "fullUrl": "urn:uuid:0a163c9d-1b2d-4705-8430-c023ed824c1a",
            "resource": {
                "resourceType": "Organization",
                "id": "0a163c9d-1b2d-4705-8430-c023ed824c1a",
                "meta": {
                    "profile": [
                        "https://fhir.hl7.org.uk/STU3/StructureDefinition/CareConnect-Organization-1"
                    ]
                }
            }
        },
        {
            "fullUrl": "urn:uuid:4c8844c9-f4b2-4758-91ce-8b58603554d5",
            "resource": {
                "resourceType": "Practitioner",
                "id": "4c8844c9-f4b2-4758-91ce-8b58603554d5",
                "meta": {
                    "profile": [
                        "https://fhir.hl7.org.uk/STU3/StructureDefinition/CareConnect-Practitioner-1"
                    ]
                }
            }
        },
        {
            "fullUrl": "urn:uuid:538c3059-c1cb-4384-b947-a7d956f44418",
            "resource": {
                "resourceType": "Organization",
                "id": "538c3059-c1cb-4384-b947-a7d956f44418",
                "meta": {
                    "profile": [
                        "https://fhir.hl7.org.uk/STU3/StructureDefinition/CareConnect-Organization-1"
                    ]
                },
                "type": [
                    {
                        "coding": [
                            {
                                "code": "dept",
                                "display": "HAEMATOLOGY"
                            }
                        ]
                    }
                ],
                "name": "ST JAMES'S UNIVERSITY HOSPITAL"
            }
        },
        {
            "fullUrl": "urn:uuid:3d4fc791-daf4-4636-90ef-6fa2d315b9a6",
            "resource": {
                "resourceType": "ProcedureRequest",
                "id": "3d4fc791-daf4-4636-90ef-6fa2d315b9a6",
                "meta": {
                    "profile": [
                        "https://fhir.hl7.org.uk/STU3/StructureDefinition/CareConnect-ProcedureRequest-1"
                    ]
                },
                "status": "unknown",
                "intent": "order",
                "code": {
                    "coding": [
                        {
                            "system": "http://snomed.info/sct",
                            "code": "15220000",
                            "display": "Laboratory test (procedure)"
                        }
                    ]
                },
                "subject": {
                    "reference": "urn:uuid:03e257c4-4ed7-4812-8a0d-92b5a4f275df"
                },
                "requester": {
                    "agent": {
                        "reference": "urn:uuid:29d010a3-2899-4189-9ca8-573447c9b6d1"
                    },
                    "onBehalfOf": {
                        "reference": "urn:uuid:0a163c9d-1b2d-4705-8430-c023ed824c1a"
                    }
                },
                "performer": {
                    "reference": "urn:uuid:4c8844c9-f4b2-4758-91ce-8b58603554d5"
                },
                "note": [
                    {
                        "text": "COELIAC"
                    }
                ]
            }
        },
        {
            "fullUrl": "urn:uuid:95ab440d-d274-4a17-9af5-f38146db5823",
            "resource": {
                "resourceType": "DiagnosticReport",
                "id": "95ab440d-d274-4a17-9af5-f38146db5823",
                "meta": {
                    "profile": [
                        "https://fhir.hl7.org.uk/STU3/StructureDefinition/CareConnect-DiagnosticReport-1"
                    ]
                },
                "identifier": [
                    {
                        "system": "https://tools.ietf.org/html/rfc4122",
                        "value": "15/CH000040N/200010191704"
                    }
                ],
                "basedOn": [
                    {
                        "reference": "urn:uuid:3d4fc791-daf4-4636-90ef-6fa2d315b9a6"
                    }
                ],
                "status": "unknown",
                "code": {
                    "coding": [
                        {
                            "system": "http://snomed.info/sct",
                            "code": "721981007",
                            "display": "Diagnostic studies report"
                        }
                    ]
                },
                "subject": {
                    "reference": "urn:uuid:03e257c4-4ed7-4812-8a0d-92b5a4f275df"
                },
                "issued": "2010-02-25T15:41:00.000+00:00",
                "performer": [
                    {
                        "actor": {
                            "reference": "urn:uuid:538c3059-c1cb-4384-b947-a7d956f44418"
                        }
                    },
                    {
                        "actor": {
                            "reference": "urn:uuid:4c8844c9-f4b2-4758-91ce-8b58603554d5"
                        }
                    }
                ],
                "specimen": [
                    {
                        "reference": "urn:uuid:a63297c7-89d3-4cae-a5c1-075ff19fa70e"
                    }
                ],
                "result": [
                    {
                        "reference": "urn:uuid:78edae74-7102-4664-a28b-4d977824b330"
                    }
                ]
            }
        },
        {
            "fullUrl": "urn:uuid:a63297c7-89d3-4cae-a5c1-075ff19fa70e",
            "resource": {
                "resourceType": "Specimen",
                "id": "a63297c7-89d3-4cae-a5c1-075ff19fa70e",
                "meta": {
                    "profile": [
                        "https://fhir.hl7.org.uk/STU3/StructureDefinition/CareConnect-Specimen-1"
                    ]
                },
                "accessionIdentifier": {
                    "system": "http://lab.acme.org/specimens/2011",
                    "value": "CH000040NB"
                },
                "type": {
                    "coding": [
                        {
                            "system": "http://snomed.info/sct",
                            "display": "VENOUS BLOOD"
                        }
                    ]
                },
                "subject": {
                    "reference": "urn:uuid:03e257c4-4ed7-4812-8a0d-92b5a4f275df"
                }
            }
        },
        {
            "fullUrl": "urn:uuid:78edae74-7102-4664-a28b-4d977824b330",
            "resource": {
                "resourceType": "Observation",
                "id": "78edae74-7102-4664-a28b-4d977824b330",
                "meta": {
                    "profile": [
                        "https://fhir.hl7.org.uk/STU3/StructureDefinition/CareConnect-Observation-1"
                    ]
                },
                "status": "unknown",
                "code": {
                    "coding": [
                        {
                            "display": "B12/FOLATE"
                        }
                    ]
                },
                "subject": {
                    "reference": "urn:uuid:03e257c4-4ed7-4812-8a0d-92b5a4f275df"
                },
                "performer": [
                    {
                        "reference": "urn:uuid:538c3059-c1cb-4384-b947-a7d956f44418"
                    },
                    {
                        "reference": "urn:uuid:4c8844c9-f4b2-4758-91ce-8b58603554d5"
                    }
                ],
                "comment": "Results repeated Low plasma Folate",
                "specimen": {
                    "reference": "urn:uuid:a63297c7-89d3-4cae-a5c1-075ff19fa70e"
                },
                "related": [
                    {
                        "type": "has-member",
                        "target": {
                            "reference": "urn:uuid:97c658b0-33f5-4b66-974d-0ff045cfaa69"
                        }
                    },
                    {
                        "type": "has-member",
                        "target": {
                            "reference": "urn:uuid:9ec0100f-336e-4396-a430-547072ac8786"
                        }
                    }
                ]
            }
        },
        {
            "fullUrl": "urn:uuid:97c658b0-33f5-4b66-974d-0ff045cfaa69",
            "resource": {
                "resourceType": "Observation",
                "id": "97c658b0-33f5-4b66-974d-0ff045cfaa69",
                "meta": {
                    "profile": [
                        "https://fhir.hl7.org.uk/STU3/StructureDefinition/CareConnect-Observation-1"
                    ]
                },
                "status": "unknown",
                "code": {
                    "coding": [
                        {
                            "system": "http://read.info/readv2",
                            "code": "42T..",
                            "display": "Serum vitamin B12"
                        }
                    ]
                },
                "subject": {
                    "reference": "urn:uuid:03e257c4-4ed7-4812-8a0d-92b5a4f275df"
                },
                "performer": [
                    {
                        "reference": "urn:uuid:538c3059-c1cb-4384-b947-a7d956f44418"
                    },
                    {
                        "reference": "urn:uuid:4c8844c9-f4b2-4758-91ce-8b58603554d5"
                    }
                ],
                "valueQuantity": {
                    "value": 1001,
                    "unit": "ng/L"
                },
                "specimen": {
                    "reference": "urn:uuid:a63297c7-89d3-4cae-a5c1-075ff19fa70e"
                },
                "referenceRange": [
                    {
                        "low": {
                            "value": 170
                        },
                        "high": {
                            "value": 1100
                        }
                    }
                ],
                "related": [
                    {
                        "target": {
                            "reference": "urn:uuid:78edae74-7102-4664-a28b-4d977824b330"
                        }
                    }
                ]
            }
        },
        {
            "fullUrl": "urn:uuid:9ec0100f-336e-4396-a430-547072ac8786",
            "resource": {
                "resourceType": "Observation",
                "id": "9ec0100f-336e-4396-a430-547072ac8786",
                "meta": {
                    "profile": [
                        "https://fhir.hl7.org.uk/STU3/StructureDefinition/CareConnect-Observation-1"
                    ]
                },
                "status": "unknown",
                "code": {
                    "coding": [
                        {
                            "system": "http://read.info/readv2",
                            "code": "42UE.",
                            "display": "Plasma folate level"
                        }
                    ]
                },
                "subject": {
                    "reference": "urn:uuid:03e257c4-4ed7-4812-8a0d-92b5a4f275df"
                },
                "performer": [
                    {
                        "reference": "urn:uuid:538c3059-c1cb-4384-b947-a7d956f44418"
                    },
                    {
                        "reference": "urn:uuid:4c8844c9-f4b2-4758-91ce-8b58603554d5"
                    }
                ],
                "valueQuantity": {
                    "value": 0.8,
                    "unit": "ng/mL"
                },
                "specimen": {
                    "reference": "urn:uuid:a63297c7-89d3-4cae-a5c1-075ff19fa70e"
                },
                "referenceRange": [
                    {
                        "low": {
                            "value": 2.0
                        },
                        "high": {
                            "value": 20.0
                        }
                    }
                ],
                "related": [
                    {
                        "target": {
                            "reference": "urn:uuid:78edae74-7102-4664-a28b-4d977824b330"
                        }
                    }
                ]
            }
        }
    ]
}