{
  "resourceType": "Bundle",
  "id": "58d98424-de1f-4a6a-bb24-2c29b60a6d6d",
  "meta": {
    "lastUpdated": "2021-03-08T12:41:12.535+00:00",
    "profile": [
      "https://fhir.nhs.uk/STU3/StructureDefinition/ITK-Message-Bundle-1"
    ]
  },
  "identifier": {
    "system": "https://tools.ietf.org/html/rfc4122",
    "value": "bb7a2441-d1f7-459d-9fdc-4da4051714dc"
  },
  "type": "message",
  "entry": [
    {
      "fullUrl": "urn:uuid:9b57f7ad-7273-42f7-8072-f4a162eb3091",
      "resource": {
        "resourceType": "Patient",
        "id": "9b57f7ad-7273-42f7-8072-f4a162eb3091",
        "identifier": [
          {
            "system": "https://fhir.nhs.uk/Id/nhs-number"
          }
        ],
        "name": [
          {
            "family": "TALEBI",
            "given": [
              "WASEEMA"
            ]
          }
        ],
        "gender": "female",
        "birthDate": "1961-08-14",
        "address": [
          {
            "line": [
              "FLAT1",
              "29 COPPICE WOOD GROVE",
              "LEEDS"
            ],
            "postalCode": "LS20 9JU"
          }
        ]
      }
    },
    {
      "fullUrl": "urn:uuid:1a4da8dc-3b5a-4eae-ad3f-ffd2d668ea0d",
      "resource": {
        "resourceType": "Practitioner",
        "id": "1a4da8dc-3b5a-4eae-ad3f-ffd2d668ea0d",
        "identifier": [
          {
            "system": "https://fhir.nhs.uk/Id/sds-user-id",
            "value": "G3380314"
          }
        ],
        "name": [
          {
            "text": "SCOTT"
          }
        ]
      }
    },
    {
      "fullUrl": "urn:uuid:9aec0c9e-6a81-45ed-9055-fe1d5d3d3eb8",
      "resource": {
        "resourceType": "Organization",
        "id": "9aec0c9e-6a81-45ed-9055-fe1d5d3d3eb8",
        "type": [
          {
            "coding": [
              {
                "code": "dept",
                "display": "HAEMATOLOGY"
              }
            ]
          }
        ],
        "name": "ST JAMES'S UNIVERSITY HOSPITAL"
      }
    },
    {
      "fullUrl": "urn:uuid:ab2ce0dd-c80c-42c3-929f-ba08459e72f2",
      "resource": {
        "resourceType": "ProcedureRequest",
        "id": "ab2ce0dd-c80c-42c3-929f-ba08459e72f2",
        "status": "unknown",
        "intent": "original-order",
        "code": {
          "text": "unknown"
        },
        "subject": {
          "reference": "urn:uuid:9b57f7ad-7273-42f7-8072-f4a162eb3091"
        },
        "requester": {
          "agent": {
            "reference": "urn:uuid:1a4da8dc-3b5a-4eae-ad3f-ffd2d668ea0d"
          }
        },
        "performer": {
          "reference": "urn:uuid:9aec0c9e-6a81-45ed-9055-fe1d5d3d3eb8"
        },
        "note": [
          {
            "text": "COELIAC"
          }
        ]
      }
    },
    {
      "fullUrl": "urn:uuid:1c2ffccb-186a-4193-a12e-f1b2c0bb6cee",
      "resource": {
        "resourceType": "DiagnosticReport",
        "id": "1c2ffccb-186a-4193-a12e-f1b2c0bb6cee",
        "identifier": [
          {
            "value": "15/CH000040N/200010191704"
          }
        ],
        "basedOn": [
          {
            "reference": "urn:uuid:ab2ce0dd-c80c-42c3-929f-ba08459e72f2"
          }
        ],
        "status": "unknown",
        "code": {
          "coding": [
            {
              "system": "http://snomed.info/sct",
              "code": "721981007",
              "display": "Diagnostic studies report"
            }
          ]
        },
        "subject": {
          "reference": "urn:uuid:9b57f7ad-7273-42f7-8072-f4a162eb3091"
        },
        "issued": "2010-02-25T15:41:00.000+00:00",
        "performer": [
          {
            "actor": {
              "reference": "urn:uuid:9aec0c9e-6a81-45ed-9055-fe1d5d3d3eb8"
            }
          }
        ],
        "specimen": [
          {
            "reference": "urn:uuid:b24ba4f9-9c60-4e71-8493-0bd4d331ca9e"
          }
        ],
        "result": [
          {
            "reference": "urn:uuid:c6f1da85-0230-4264-8398-ebf6cec2fecc"
          }
        ]
      }
    },
    {
      "fullUrl": "urn:uuid:b24ba4f9-9c60-4e71-8493-0bd4d331ca9e",
      "resource": {
        "resourceType": "Specimen",
        "id": "b24ba4f9-9c60-4e71-8493-0bd4d331ca9e",
        "accessionIdentifier": {
          "system": "http://lab.acme.org/specimens/2011",
          "value": "CH000040NB"
        },
        "type": {
          "coding": [
            {
              "system": "http://snomed.info/sct",
              "display": "VENOUS BLOOD"
            }
          ]
        },
        "subject": {
          "reference": "urn:uuid:9b57f7ad-7273-42f7-8072-f4a162eb3091"
        }
      }
    },
    {
      "fullUrl": "urn:uuid:c6f1da85-0230-4264-8398-ebf6cec2fecc",
      "resource": {
        "resourceType": "Observation",
        "id": "c6f1da85-0230-4264-8398-ebf6cec2fecc",
        "status": "unknown",
        "code": {
          "coding": [
            {
              "display": "B12/FOLATE"
            }
          ]
        },
        "subject": {
          "reference": "urn:uuid:9b57f7ad-7273-42f7-8072-f4a162eb3091"
        },
        "performer": [
          {
            "reference": "urn:uuid:9aec0c9e-6a81-45ed-9055-fe1d5d3d3eb8"
          }
        ],
        "comment": "Results repeated Low plasma Folate",
        "specimen": {
          "reference": "urn:uuid:b24ba4f9-9c60-4e71-8493-0bd4d331ca9e"
        },
        "related": [
          {
            "type": "has-member",
            "target": {
              "reference": "urn:uuid:4a84669e-1c00-4cbc-b206-cc7c29b1ffdb"
            }
          },
          {
            "type": "has-member",
            "target": {
              "reference": "urn:uuid:9606f5aa-cbb8-4043-9abf-5f4bba16e28d"
            }
          }
        ]
      }
    },
    {
      "fullUrl": "urn:uuid:4a84669e-1c00-4cbc-b206-cc7c29b1ffdb",
      "resource": {
        "resourceType": "Observation",
        "id": "4a84669e-1c00-4cbc-b206-cc7c29b1ffdb",
        "status": "unknown",
        "code": {
          "coding": [
            {
              "system": "http://read.info/readv2",
              "code": "42T..",
              "display": "Serum vitamin B12"
            }
          ]
        },
        "subject": {
          "reference": "urn:uuid:9b57f7ad-7273-42f7-8072-f4a162eb3091"
        },
        "performer": [
          {
            "reference": "urn:uuid:9aec0c9e-6a81-45ed-9055-fe1d5d3d3eb8"
          }
        ],
        "valueQuantity": {
          "value": 1001,
          "unit": "ng/L"
        },
        "specimen": {
          "reference": "urn:uuid:b24ba4f9-9c60-4e71-8493-0bd4d331ca9e"
        },
        "referenceRange": [
          {
            "low": {
              "value": 170
            },
            "high": {
              "value": 1100
            }
          }
        ],
        "related": [
          {
            "target": {
              "reference": "urn:uuid:c6f1da85-0230-4264-8398-ebf6cec2fecc"
            }
          }
        ]
      }
    },
    {
      "fullUrl": "urn:uuid:9606f5aa-cbb8-4043-9abf-5f4bba16e28d",
      "resource": {
        "resourceType": "Observation",
        "id": "9606f5aa-cbb8-4043-9abf-5f4bba16e28d",
        "status": "unknown",
        "code": {
          "coding": [
            {
              "system": "http://read.info/readv2",
              "code": "42UE.",
              "display": "Plasma folate level"
            }
          ]
        },
        "subject": {
          "reference": "urn:uuid:9b57f7ad-7273-42f7-8072-f4a162eb3091"
        },
        "performer": [
          {
            "reference": "urn:uuid:9aec0c9e-6a81-45ed-9055-fe1d5d3d3eb8"
          }
        ],
        "valueQuantity": {
          "value": 0.8,
          "unit": "ng/mL"
        },
        "specimen": {
          "reference": "urn:uuid:b24ba4f9-9c60-4e71-8493-0bd4d331ca9e"
        },
        "referenceRange": [
          {
            "low": {
              "value": 2.0
            },
            "high": {
              "value": 20.0
            }
          }
        ],
        "related": [
          {
            "target": {
              "reference": "urn:uuid:c6f1da85-0230-4264-8398-ebf6cec2fecc"
            }
          }
        ]
      }
    }
  ]
}