{
    "resourceType": "Bundle",
    "id": "fd1daf99-9aa4-4245-9236-9d6fca308cf1",
    "meta": {
        "lastUpdated": "2021-06-07T12:29:49.457+01:00",
        "profile": [ "https://fhir.nhs.uk/STU3/StructureDefinition/ITK-Message-Bundle-1" ]
    },
    "identifier": {
        "system": "https://tools.ietf.org/html/rfc4122",
        "value": "f77d2007-50c4-46d4-a2ee-98e22efd2d8b"
    },
    "type": "message",
    "entry": [ {
        "fullUrl": "urn:uuid:b752a811-d7c6-4298-83fa-a79c1788e438",
        "resource": {
            "resourceType": "MessageHeader",
            "id": "b752a811-d7c6-4298-83fa-a79c1788e438",
            "meta": {
                "profile": [ "https://fhir.nhs.uk/STU3/StructureDefinition/ITK-MessageHeader-2" ]
            },
            "extension": [ {
                "url": "https://fhir.nhs.uk/STU3/StructureDefinition/Extension-ITK-MessageHandling-2",
                "extension": [ {
                    "url": "BusAckRequested",
                    "valueBoolean": true
                }, {
                    "url": "InfAckRequested",
                    "valueBoolean": true
                }, {
                    "url": "RecipientType",
                    "valueCoding": {
                        "system": "https://fhir.nhs.uk/STU3/CodeSystem/ITK-RecipientType-1",
                        "code": "FA",
                        "display": "For Action"
                    }
                }, {
                    "url": "SenderReference",
                    "valueString": "None"
                }, {
                    "url": "LocalExtension",
                    "valueString": "None"
                } ]
            } ],
            "event": {
                "system": "https://fhir.nhs.uk/STU3/CodeSystem/ITK-MessageEvent-2",
                "code": "ITK012M",
                "display": "ITK National Pathology"
            },
            "receiver": {
                "reference": "urn:uuid:87a235e3-acfa-4b3e-90d8-65fb77d90e97"
            },
            "sender": {
                "reference": "urn:uuid:9b359d84-3270-42fd-a60c-774848d475c7"
            },
            "timestamp": "2010-03-01T17:51:00.000+00:00",
            "source": {
                "endpoint": "lab_results_mailbox"
            },
            "responsible": {
                "reference": "urn:uuid:9b359d84-3270-42fd-a60c-774848d475c7"
            },
            "focus": [ {
                "reference": "urn:uuid:2d21eeae-9f44-4f49-9c0f-01d2fb818720"
            } ]
        }
    }, {
        "fullUrl": "urn:uuid:907335db-0110-4b58-8b74-764419db6132",
        "resource": {
            "resourceType": "Patient",
            "id": "907335db-0110-4b58-8b74-764419db6132",
            "meta": {
                "profile": [ "https://fhir.hl7.org.uk/STU3/StructureDefinition/CareConnect-Patient-1" ]
            },
            "name": [ {
                "use": "official",
                "family": "TALEBI",
                "given": [ "WASEEMA" ]
            } ],
            "gender": "female",
            "birthDate": "1961-08-14",
            "address": [ {
                "line": [ "FLAT2", "40 COPPICE WOOD GROVE", "LEEDS" ],
                "postalCode": "LS20 9JU"
            } ]
        }
    }, {
        "fullUrl": "urn:uuid:f4b8a718-2e58-4a74-a4b0-9da213438010",
        "resource": {
            "resourceType": "Practitioner",
            "id": "f4b8a718-2e58-4a74-a4b0-9da213438010",
            "meta": {
                "profile": [ "https://fhir.hl7.org.uk/STU3/StructureDefinition/CareConnect-Practitioner-1" ]
            },
            "identifier": [ {
                "value": "G3380314"
            } ],
            "name": [ {
                "text": "SCOTT"
            } ]
        }
    }, {
        "fullUrl": "urn:uuid:87a235e3-acfa-4b3e-90d8-65fb77d90e97",
        "resource": {
            "resourceType": "Organization",
            "id": "87a235e3-acfa-4b3e-90d8-65fb77d90e97",
            "meta": {
                "profile": [ "https://fhir.hl7.org.uk/STU3/StructureDefinition/CareConnect-Organization-1" ]
            }
        }
    }, {
        "fullUrl": "urn:uuid:77ad2883-04d1-4afc-aaa8-b8febbf51cc5",
        "resource": {
            "resourceType": "Practitioner",
            "id": "77ad2883-04d1-4afc-aaa8-b8febbf51cc5",
            "meta": {
                "profile": [ "https://fhir.hl7.org.uk/STU3/StructureDefinition/CareConnect-Practitioner-1" ]
            }
        }
    }, {
        "fullUrl": "urn:uuid:9b359d84-3270-42fd-a60c-774848d475c7",
        "resource": {
            "resourceType": "Organization",
            "id": "9b359d84-3270-42fd-a60c-774848d475c7",
            "meta": {
                "profile": [ "https://fhir.hl7.org.uk/STU3/StructureDefinition/CareConnect-Organization-1" ]
            },
            "type": [ {
                "coding": [ {
                    "code": "dept",
                    "display": "HAEMATOLOGY"
                } ]
            } ],
            "name": "ST JAMES'S UNIVERSITY HOSPITAL"
        }
    }, {
        "fullUrl": "urn:uuid:839b4083-706f-42e9-b6dd-f0d761c7ff8d",
        "resource": {
            "resourceType": "ProcedureRequest",
            "id": "839b4083-706f-42e9-b6dd-f0d761c7ff8d",
            "meta": {
                "profile": [ "https://fhir.hl7.org.uk/STU3/StructureDefinition/CareConnect-ProcedureRequest-1" ]
            },
            "status": "unknown",
            "intent": "order",
            "code": {
                "coding": [ {
                    "system": "http://snomed.info/sct",
                    "code": "15220000",
                    "display": "Laboratory test (procedure)"
                } ]
            },
            "subject": {
                "reference": "urn:uuid:907335db-0110-4b58-8b74-764419db6132"
            },
            "requester": {
                "agent": {
                    "reference": "urn:uuid:f4b8a718-2e58-4a74-a4b0-9da213438010"
                },
                "onBehalfOf": {
                    "reference": "urn:uuid:87a235e3-acfa-4b3e-90d8-65fb77d90e97"
                }
            },
            "performer": {
                "reference": "urn:uuid:77ad2883-04d1-4afc-aaa8-b8febbf51cc5"
            },
            "note": [ {
                "text": "COELIAC"
            } ]
        }
    }, {
        "fullUrl": "urn:uuid:2d21eeae-9f44-4f49-9c0f-01d2fb818720",
        "resource": {
            "resourceType": "DiagnosticReport",
            "id": "2d21eeae-9f44-4f49-9c0f-01d2fb818720",
            "meta": {
                "profile": [ "https://fhir.hl7.org.uk/STU3/StructureDefinition/CareConnect-DiagnosticReport-1" ]
            },
            "identifier": [ {
                "system": "https://tools.ietf.org/html/rfc4122",
                "value": "15/CH000040N/200010191704"
            } ],
            "basedOn": [ {
                "reference": "urn:uuid:839b4083-706f-42e9-b6dd-f0d761c7ff8d"
            } ],
            "status": "unknown",
            "code": {
                "coding": [ {
                    "system": "http://snomed.info/sct",
                    "code": "721981007",
                    "display": "Diagnostic studies report"
                } ]
            },
            "subject": {
                "reference": "urn:uuid:907335db-0110-4b58-8b74-764419db6132"
            },
            "issued": "2010-02-25T15:41:00.000+00:00",
            "performer": [ {
                "actor": {
                    "reference": "urn:uuid:9b359d84-3270-42fd-a60c-774848d475c7"
                }
            }, {
                "actor": {
                    "reference": "urn:uuid:77ad2883-04d1-4afc-aaa8-b8febbf51cc5"
                }
            } ],
            "specimen": [ {
                "reference": "urn:uuid:c5ca2209-f236-4b24-bf9f-cc58a7983f0f"
            } ],
            "result": [ {
                "reference": "urn:uuid:da43d754-d4c2-4081-a0b5-733400b30de8"
            } ]
        }
    }, {
        "fullUrl": "urn:uuid:c5ca2209-f236-4b24-bf9f-cc58a7983f0f",
        "resource": {
            "resourceType": "Specimen",
            "id": "c5ca2209-f236-4b24-bf9f-cc58a7983f0f",
            "meta": {
                "profile": [ "https://fhir.hl7.org.uk/STU3/StructureDefinition/CareConnect-Specimen-1" ]
            },
            "accessionIdentifier": {
                "value": "CH000040NB"
            },
            "type": {
                "coding": [ {
                    "system": "http://snomed.info/sct",
                    "display": "VENOUS BLOOD"
                } ]
            },
            "subject": {
                "reference": "urn:uuid:907335db-0110-4b58-8b74-764419db6132"
            }
        }
    }, {
        "fullUrl": "urn:uuid:da43d754-d4c2-4081-a0b5-733400b30de8",
        "resource": {
            "resourceType": "Observation",
            "id": "da43d754-d4c2-4081-a0b5-733400b30de8",
            "meta": {
                "profile": [ "https://fhir.hl7.org.uk/STU3/StructureDefinition/CareConnect-Observation-1" ]
            },
            "status": "unknown",
            "code": {
                "coding": [ {
                    "display": "B12/FOLATE"
                } ]
            },
            "subject": {
                "reference": "urn:uuid:907335db-0110-4b58-8b74-764419db6132"
            },
            "performer": [ {
                "reference": "urn:uuid:9b359d84-3270-42fd-a60c-774848d475c7"
            }, {
                "reference": "urn:uuid:77ad2883-04d1-4afc-aaa8-b8febbf51cc5"
            } ],
            "comment": "Results repeated Low plasma Folate",
            "specimen": {
                "reference": "urn:uuid:c5ca2209-f236-4b24-bf9f-cc58a7983f0f"
            },
            "related": [ {
                "type": "has-member",
                "target": {
                    "reference": "urn:uuid:10cfde2d-649a-41e3-8445-a2af867e35e6"
                }
            }, {
                "type": "has-member",
                "target": {
                    "reference": "urn:uuid:f45b320f-b0ac-4501-a7d0-3e9ec101e555"
                }
            } ]
        }
    }, {
        "fullUrl": "urn:uuid:10cfde2d-649a-41e3-8445-a2af867e35e6",
        "resource": {
            "resourceType": "Observation",
            "id": "10cfde2d-649a-41e3-8445-a2af867e35e6",
            "meta": {
                "profile": [ "https://fhir.hl7.org.uk/STU3/StructureDefinition/CareConnect-Observation-1" ]
            },
            "status": "unknown",
            "code": {
                "coding": [ {
                    "system": "http://read.info/readv2",
                    "code": "42T..",
                    "display": "Serum vitamin B12"
                } ]
            },
            "subject": {
                "reference": "urn:uuid:907335db-0110-4b58-8b74-764419db6132"
            },
            "performer": [ {
                "reference": "urn:uuid:9b359d84-3270-42fd-a60c-774848d475c7"
            }, {
                "reference": "urn:uuid:77ad2883-04d1-4afc-aaa8-b8febbf51cc5"
            } ],
            "valueQuantity": {
                "value": 1001,
                "unit": "ng/L"
            },
            "specimen": {
                "reference": "urn:uuid:c5ca2209-f236-4b24-bf9f-cc58a7983f0f"
            },
            "referenceRange": [ {
                "low": {
                    "value": 170
                },
                "high": {
                    "value": 1100
                }
            } ],
            "related": [ {
                "target": {
                    "reference": "urn:uuid:da43d754-d4c2-4081-a0b5-733400b30de8"
                }
            } ]
        }
    }, {
        "fullUrl": "urn:uuid:f45b320f-b0ac-4501-a7d0-3e9ec101e555",
        "resource": {
            "resourceType": "Observation",
            "id": "f45b320f-b0ac-4501-a7d0-3e9ec101e555",
            "meta": {
                "profile": [ "https://fhir.hl7.org.uk/STU3/StructureDefinition/CareConnect-Observation-1" ]
            },
            "status": "unknown",
            "code": {
                "coding": [ {
                    "system": "http://read.info/readv2",
                    "code": "42UE.",
                    "display": "Plasma folate level"
                } ]
            },
            "subject": {
                "reference": "urn:uuid:907335db-0110-4b58-8b74-764419db6132"
            },
            "performer": [ {
                "reference": "urn:uuid:9b359d84-3270-42fd-a60c-774848d475c7"
            }, {
                "reference": "urn:uuid:77ad2883-04d1-4afc-aaa8-b8febbf51cc5"
            } ],
            "valueQuantity": {
                "value": 0.8,
                "unit": "ng/mL"
            },
            "specimen": {
                "reference": "urn:uuid:c5ca2209-f236-4b24-bf9f-cc58a7983f0f"
            },
            "referenceRange": [ {
                "low": {
                    "value": 2.0
                },
                "high": {
                    "value": 20.0
                }
            } ],
            "related": [ {
                "target": {
                    "reference": "urn:uuid:da43d754-d4c2-4081-a0b5-733400b30de8"
                }
            } ]
        }
    } ]
}