{
    "resourceType": "Bundle",
    "id": "6c31ea97-971a-4fed-9f12-e1d127c8572f",
    "meta": {
        "lastUpdated": "2021-04-22T13:27:45.055+02:00",
        "profile": [
            "https://fhir.nhs.uk/STU3/StructureDefinition/ITK-Message-Bundle-1"
        ]
    },
    "identifier": {
        "system": "https://tools.ietf.org/html/rfc4122",
        "value": "7b5dce94-9304-4674-b0f8-26ff92e1372b"
    },
    "type": "message",
    "entry": [
        {
            "fullUrl": "urn:uuid:7812d486-f301-4c1a-81f2-42e261b9a3df",
            "resource": {
                "resourceType": "MessageHeader",
                "id": "7812d486-f301-4c1a-81f2-42e261b9a3df",
                "meta": {
                    "profile": [
                        "https://fhir.nhs.uk/STU3/StructureDefinition/ITK-MessageHeader-2"
                    ]
                },
                "extension": [
                    {
                        "url": "https://fhir.nhs.uk/STU3/StructureDefinition/Extension-ITK-MessageHandling-2",
                        "extension": [
                            {
                                "url": "BusAckRequested",
                                "valueBoolean": true
                            },
                            {
                                "url": "InfAckRequested",
                                "valueBoolean": true
                            },
                            {
                                "url": "RecipientType",
                                "valueCoding": {
                                    "system": "https://fhir.nhs.uk/STU3/CodeSystem/ITK-RecipientType-1",
                                    "code": "FA",
                                    "display": "For Action"
                                }
                            },
                            {
                                "url": "SenderReference",
                                "valueString": "None"
                            },
                            {
                                "url": "LocalExtension",
                                "valueString": "None"
                            }
                        ]
                    }
                ],
                "event": {
                    "system": "https://fhir.nhs.uk/STU3/CodeSystem/ITK-MessageEvent-2",
                    "code": "ITK012M",
                    "display": "ITK National Pathology"
                },
                "receiver": {
                    "reference": "urn:uuid:bb45e891-a01d-4f03-862e-404dc702de41"
                },
                "sender": {
                    "reference": "urn:uuid:8df314f9-d8a3-43b5-ae0c-661dd9ce29fc"
                },
                "source": {
                    "endpoint": "lab_results_mailbox"
                },
                "responsible": {
                    "reference": "urn:uuid:8df314f9-d8a3-43b5-ae0c-661dd9ce29fc"
                },
                "focus": [
                    {
                        "reference": "urn:uuid:cd11b224-4d76-4180-8961-846801c4a95d"
                    }
                ]
            }
        },
        {
            "fullUrl": "urn:uuid:d06c78c4-a207-45e2-906a-09eeb741d5e2",
            "resource": {
                "resourceType": "Patient",
                "id": "d06c78c4-a207-45e2-906a-09eeb741d5e2",
                "meta": {
                    "profile": [
                        "https://fhir.hl7.org.uk/STU3/StructureDefinition/CareConnect-Patient-1"
                    ]
                },
                "identifier": [
                    {
                        "id": "Z77553311"
                    }
                ],
                "name": [
                    {
                        "family": "SPRINGATE",
                        "given": [
                            "SYDNEY"
                        ]
                    }
                ],
                "birthDate": "1962-11-01",
                "address": [
                    {
                        "line": [
                            "FLAT1",
                            "1 LUMBY",
                            "PUDSEY",
                            "LEEDS"
                        ],
                        "postalCode": "LS25 5PR"
                    }
                ]
            }
        },
        {
            "fullUrl": "urn:uuid:55c01686-d7ab-4e45-9182-a29b2aae136b",
            "resource": {
                "resourceType": "Practitioner",
                "id": "55c01686-d7ab-4e45-9182-a29b2aae136b",
                "meta": {
                    "profile": [
                        "https://fhir.hl7.org.uk/STU3/StructureDefinition/CareConnect-Practitioner-1"
                    ]
                },
                "identifier": [
                    {
                        "system": "https://fhir.nhs.uk/Id/sds-user-id",
                        "value": "G3380314"
                    }
                ],
                "name": [
                    {
                        "text": "SCOTT"
                    }
                ]
            }
        },
        {
            "fullUrl": "urn:uuid:bb45e891-a01d-4f03-862e-404dc702de41",
            "resource": {
                "resourceType": "Organization",
                "id": "bb45e891-a01d-4f03-862e-404dc702de41",
                "meta": {
                    "profile": [
                        "https://fhir.hl7.org.uk/STU3/StructureDefinition/CareConnect-Organization-1"
                    ]
                }
            }
        },
        {
            "fullUrl": "urn:uuid:f12cddbc-4c08-4a9e-8c39-6433fcd93f10",
            "resource": {
                "resourceType": "Practitioner",
                "id": "f12cddbc-4c08-4a9e-8c39-6433fcd93f10",
                "meta": {
                    "profile": [
                        "https://fhir.hl7.org.uk/STU3/StructureDefinition/CareConnect-Practitioner-1"
                    ]
                }
            }
        },
        {
            "fullUrl": "urn:uuid:8df314f9-d8a3-43b5-ae0c-661dd9ce29fc",
            "resource": {
                "resourceType": "Organization",
                "id": "8df314f9-d8a3-43b5-ae0c-661dd9ce29fc",
                "meta": {
                    "profile": [
                        "https://fhir.hl7.org.uk/STU3/StructureDefinition/CareConnect-Organization-1"
                    ]
                },
                "type": [
                    {
                        "coding": [
                            {
                                "code": "dept",
                                "display": "Haematology Dept."
                            }
                        ]
                    }
                ],
                "name": "ST JAMES'S UNIVERSITY HOSPITAL"
            }
        },
        {
            "fullUrl": "urn:uuid:50f1e0de-dad7-4a8a-bcee-5b4bc259396c",
            "resource": {
                "resourceType": "ProcedureRequest",
                "id": "50f1e0de-dad7-4a8a-bcee-5b4bc259396c",
                "meta": {
                    "profile": [
                        "https://fhir.hl7.org.uk/STU3/StructureDefinition/CareConnect-ProcedureRequest-1"
                    ]
                },
                "status": "unknown",
                "intent": "order",
                "code": {
                    "text": "unknown"
                },
                "subject": {
                    "reference": "urn:uuid:d06c78c4-a207-45e2-906a-09eeb741d5e2"
                },
                "requester": {
                    "agent": {
                        "reference": "urn:uuid:55c01686-d7ab-4e45-9182-a29b2aae136b"
                    },
                    "onBehalfOf": {
                        "reference": "urn:uuid:bb45e891-a01d-4f03-862e-404dc702de41"
                    }
                },
                "performer": {
                    "reference": "urn:uuid:f12cddbc-4c08-4a9e-8c39-6433fcd93f10"
                },
                "note": [
                    {
                        "text": "ON AZATHIOPRINE"
                    }
                ]
            }
        },
        {
            "fullUrl": "urn:uuid:cd11b224-4d76-4180-8961-846801c4a95d",
            "resource": {
                "resourceType": "DiagnosticReport",
                "id": "cd11b224-4d76-4180-8961-846801c4a95d",
                "meta": {
                    "profile": [
                        "https://fhir.hl7.org.uk/STU3/StructureDefinition/CareConnect-DiagnosticReport-1"
                    ]
                },
                "identifier": [
                    {
                        "value": "15/CH000041O/200010191704"
                    }
                ],
                "basedOn": [
                    {
                        "reference": "urn:uuid:50f1e0de-dad7-4a8a-bcee-5b4bc259396c"
                    }
                ],
                "status": "unknown",
                "code": {
                    "coding": [
                        {
                            "system": "http://snomed.info/sct",
                            "code": "721981007",
                            "display": "Diagnostic studies report"
                        }
                    ]
                },
                "subject": {
                    "reference": "urn:uuid:d06c78c4-a207-45e2-906a-09eeb741d5e2"
                },
                "issued": "2010-02-25T16:41:00.000+01:00",
                "performer": [
                    {
                        "actor": {
                            "reference": "urn:uuid:8df314f9-d8a3-43b5-ae0c-661dd9ce29fc"
                        }
                    },
                    {
                        "actor": {
                            "reference": "urn:uuid:f12cddbc-4c08-4a9e-8c39-6433fcd93f10"
                        }
                    }
                ],
                "specimen": [
                    {
                        "reference": "urn:uuid:6454a722-ed37-4ae7-ade3-fdb0b0a960d0"
                    }
                ],
                "result": [
                    {
                        "reference": "urn:uuid:6c19b2b2-8777-457f-a7dd-3c10656eee3c"
                    }
                ]
            }
        },
        {
            "fullUrl": "urn:uuid:6454a722-ed37-4ae7-ade3-fdb0b0a960d0",
            "resource": {
                "resourceType": "Specimen",
                "id": "6454a722-ed37-4ae7-ade3-fdb0b0a960d0",
                "meta": {
                    "profile": [
                        "https://fhir.hl7.org.uk/STU3/StructureDefinition/CareConnect-Specimen-1"
                    ]
                },
                "accessionIdentifier": {
                    "system": "http://lab.acme.org/specimens/2011",
                    "value": "CH000041OC"
                },
                "type": {
                    "coding": [
                        {
                            "system": "http://snomed.info/sct",
                            "display": "VENOUS BLOOD"
                        }
                    ]
                },
                "subject": {
                    "reference": "urn:uuid:d06c78c4-a207-45e2-906a-09eeb741d5e2"
                },
                "collection": {
                    "collectedDateTime": "2010-02-23"
                }
            }
        },
        {
            "fullUrl": "urn:uuid:6c19b2b2-8777-457f-a7dd-3c10656eee3c",
            "resource": {
                "resourceType": "Observation",
                "id": "6c19b2b2-8777-457f-a7dd-3c10656eee3c",
                "meta": {
                    "profile": [
                        "https://fhir.hl7.org.uk/STU3/StructureDefinition/CareConnect-Observation-1"
                    ]
                },
                "status": "unknown",
                "code": {
                    "coding": [
                        {
                            "system": "http://read.info/readv2",
                            "code": "424..",
                            "display": "Full blood count - FBC"
                        }
                    ]
                },
                "subject": {
                    "reference": "urn:uuid:d06c78c4-a207-45e2-906a-09eeb741d5e2"
                },
                "performer": [
                    {
                        "reference": "urn:uuid:8df314f9-d8a3-43b5-ae0c-661dd9ce29fc"
                    },
                    {
                        "reference": "urn:uuid:f12cddbc-4c08-4a9e-8c39-6433fcd93f10"
                    }
                ],
                "specimen": {
                    "reference": "urn:uuid:6454a722-ed37-4ae7-ade3-fdb0b0a960d0"
                },
                "related": [
                    {
                        "type": "has-member",
                        "target": {
                            "reference": "urn:uuid:0d5437ff-e8cc-41d1-a641-314033558a51"
                        }
                    },
                    {
                        "type": "has-member",
                        "target": {
                            "reference": "urn:uuid:6fd0fdca-59c4-410d-8c38-3c595da2a830"
                        }
                    },
                    {
                        "type": "has-member",
                        "target": {
                            "reference": "urn:uuid:b3dec3d3-0eb8-47d2-bc55-c3a651e64db8"
                        }
                    },
                    {
                        "type": "has-member",
                        "target": {
                            "reference": "urn:uuid:d00e17fd-335a-4809-b4bc-107a53628bf3"
                        }
                    },
                    {
                        "type": "has-member",
                        "target": {
                            "reference": "urn:uuid:bb343501-a9d4-4f16-aab4-c75912a45077"
                        }
                    },
                    {
                        "type": "has-member",
                        "target": {
                            "reference": "urn:uuid:edc76308-f1eb-4e51-a209-05d9aaad59d4"
                        }
                    },
                    {
                        "type": "has-member",
                        "target": {
                            "reference": "urn:uuid:34d06eef-7c1f-4aed-8bad-a7e4255b7fdd"
                        }
                    },
                    {
                        "type": "has-member",
                        "target": {
                            "reference": "urn:uuid:c9987c65-e73f-482d-a182-aec026e967db"
                        }
                    },
                    {
                        "type": "has-member",
                        "target": {
                            "reference": "urn:uuid:9c598cfb-3198-4806-8060-44de83719025"
                        }
                    },
                    {
                        "type": "has-member",
                        "target": {
                            "reference": "urn:uuid:42c41cc5-7fd7-47d1-8920-708840ee69d3"
                        }
                    },
                    {
                        "type": "has-member",
                        "target": {
                            "reference": "urn:uuid:fe14ff7e-d6ff-45db-a117-714efc925edb"
                        }
                    },
                    {
                        "type": "has-member",
                        "target": {
                            "reference": "urn:uuid:d6e61107-39a0-4dd3-b1bb-993dae96682e"
                        }
                    },
                    {
                        "type": "has-member",
                        "target": {
                            "reference": "urn:uuid:c15f5147-0572-49ac-a6c6-da2f8cb69aa6"
                        }
                    }
                ]
            }
        },
        {
            "fullUrl": "urn:uuid:0d5437ff-e8cc-41d1-a641-314033558a51",
            "resource": {
                "resourceType": "Observation",
                "id": "0d5437ff-e8cc-41d1-a641-314033558a51",
                "meta": {
                    "profile": [
                        "https://fhir.hl7.org.uk/STU3/StructureDefinition/CareConnect-Observation-1"
                    ]
                },
                "status": "unknown",
                "code": {
                    "coding": [
                        {
                            "system": "http://read.info/readv2",
                            "code": "42H..",
                            "display": "Total white cell count"
                        }
                    ]
                },
                "subject": {
                    "reference": "urn:uuid:d06c78c4-a207-45e2-906a-09eeb741d5e2"
                },
                "performer": [
                    {
                        "reference": "urn:uuid:8df314f9-d8a3-43b5-ae0c-661dd9ce29fc"
                    },
                    {
                        "reference": "urn:uuid:f12cddbc-4c08-4a9e-8c39-6433fcd93f10"
                    }
                ],
                "valueQuantity": {
                    "value": 7.6,
                    "unit": "10*9/L"
                },
                "specimen": {
                    "reference": "urn:uuid:6454a722-ed37-4ae7-ade3-fdb0b0a960d0"
                },
                "referenceRange": [
                    {
                        "low": {
                            "value": 4.0
                        },
                        "high": {
                            "value": 11.0
                        }
                    }
                ],
                "related": [
                    {
                        "target": {
                            "reference": "urn:uuid:6c19b2b2-8777-457f-a7dd-3c10656eee3c"
                        }
                    }
                ]
            }
        },
        {
            "fullUrl": "urn:uuid:6fd0fdca-59c4-410d-8c38-3c595da2a830",
            "resource": {
                "resourceType": "Observation",
                "id": "6fd0fdca-59c4-410d-8c38-3c595da2a830",
                "meta": {
                    "profile": [
                        "https://fhir.hl7.org.uk/STU3/StructureDefinition/CareConnect-Observation-1"
                    ]
                },
                "status": "unknown",
                "code": {
                    "coding": [
                        {
                            "system": "http://read.info/readv2",
                            "code": "426..",
                            "display": "Red blood cell (RBC) count"
                        }
                    ]
                },
                "subject": {
                    "reference": "urn:uuid:d06c78c4-a207-45e2-906a-09eeb741d5e2"
                },
                "performer": [
                    {
                        "reference": "urn:uuid:8df314f9-d8a3-43b5-ae0c-661dd9ce29fc"
                    },
                    {
                        "reference": "urn:uuid:f12cddbc-4c08-4a9e-8c39-6433fcd93f10"
                    }
                ],
                "valueQuantity": {
                    "value": 2.84,
                    "unit": "10*12/L"
                },
                "interpretation": {
                    "text": "LO : Below low reference limit"
                },
                "specimen": {
                    "reference": "urn:uuid:6454a722-ed37-4ae7-ade3-fdb0b0a960d0"
                },
                "referenceRange": [
                    {
                        "low": {
                            "value": 3.8
                        },
                        "high": {
                            "value": 5.4
                        }
                    }
                ],
                "related": [
                    {
                        "target": {
                            "reference": "urn:uuid:6c19b2b2-8777-457f-a7dd-3c10656eee3c"
                        }
                    }
                ]
            }
        },
        {
            "fullUrl": "urn:uuid:b3dec3d3-0eb8-47d2-bc55-c3a651e64db8",
            "resource": {
                "resourceType": "Observation",
                "id": "b3dec3d3-0eb8-47d2-bc55-c3a651e64db8",
                "meta": {
                    "profile": [
                        "https://fhir.hl7.org.uk/STU3/StructureDefinition/CareConnect-Observation-1"
                    ]
                },
                "status": "unknown",
                "code": {
                    "coding": [
                        {
                            "system": "http://read.info/readv2",
                            "code": "423..",
                            "display": "Haemoglobin estimation"
                        }
                    ]
                },
                "subject": {
                    "reference": "urn:uuid:d06c78c4-a207-45e2-906a-09eeb741d5e2"
                },
                "performer": [
                    {
                        "reference": "urn:uuid:8df314f9-d8a3-43b5-ae0c-661dd9ce29fc"
                    },
                    {
                        "reference": "urn:uuid:f12cddbc-4c08-4a9e-8c39-6433fcd93f10"
                    }
                ],
                "valueQuantity": {
                    "value": 11.0,
                    "unit": "g/dL"
                },
                "specimen": {
                    "reference": "urn:uuid:6454a722-ed37-4ae7-ade3-fdb0b0a960d0"
                },
                "referenceRange": [
                    {
                        "low": {
                            "value": 10.5
                        },
                        "high": {
                            "value": 15.0
                        }
                    }
                ],
                "related": [
                    {
                        "target": {
                            "reference": "urn:uuid:6c19b2b2-8777-457f-a7dd-3c10656eee3c"
                        }
                    }
                ]
            }
        },
        {
            "fullUrl": "urn:uuid:d00e17fd-335a-4809-b4bc-107a53628bf3",
            "resource": {
                "resourceType": "Observation",
                "id": "d00e17fd-335a-4809-b4bc-107a53628bf3",
                "meta": {
                    "profile": [
                        "https://fhir.hl7.org.uk/STU3/StructureDefinition/CareConnect-Observation-1"
                    ]
                },
                "status": "unknown",
                "code": {
                    "coding": [
                        {
                            "system": "http://read.info/readv2",
                            "code": "4258.",
                            "display": "Haematocrit"
                        }
                    ]
                },
                "subject": {
                    "reference": "urn:uuid:d06c78c4-a207-45e2-906a-09eeb741d5e2"
                },
                "performer": [
                    {
                        "reference": "urn:uuid:8df314f9-d8a3-43b5-ae0c-661dd9ce29fc"
                    },
                    {
                        "reference": "urn:uuid:f12cddbc-4c08-4a9e-8c39-6433fcd93f10"
                    }
                ],
                "valueQuantity": {
                    "value": 0.315,
                    "unit": "%"
                },
                "interpretation": {
                    "text": "LO : Below low reference limit"
                },
                "specimen": {
                    "reference": "urn:uuid:6454a722-ed37-4ae7-ade3-fdb0b0a960d0"
                },
                "referenceRange": [
                    {
                        "low": {
                            "value": 0.370
                        },
                        "high": {
                            "value": 0.470
                        }
                    }
                ],
                "related": [
                    {
                        "target": {
                            "reference": "urn:uuid:6c19b2b2-8777-457f-a7dd-3c10656eee3c"
                        }
                    }
                ]
            }
        },
        {
            "fullUrl": "urn:uuid:bb343501-a9d4-4f16-aab4-c75912a45077",
            "resource": {
                "resourceType": "Observation",
                "id": "bb343501-a9d4-4f16-aab4-c75912a45077",
                "meta": {
                    "profile": [
                        "https://fhir.hl7.org.uk/STU3/StructureDefinition/CareConnect-Observation-1"
                    ]
                },
                "status": "unknown",
                "code": {
                    "coding": [
                        {
                            "system": "http://read.info/readv2",
                            "code": "42A..",
                            "display": "Mean corpuscular volume (MCV)"
                        }
                    ]
                },
                "subject": {
                    "reference": "urn:uuid:d06c78c4-a207-45e2-906a-09eeb741d5e2"
                },
                "performer": [
                    {
                        "reference": "urn:uuid:8df314f9-d8a3-43b5-ae0c-661dd9ce29fc"
                    },
                    {
                        "reference": "urn:uuid:f12cddbc-4c08-4a9e-8c39-6433fcd93f10"
                    }
                ],
                "valueQuantity": {
                    "value": 111.1,
                    "unit": "fL"
                },
                "interpretation": {
                    "text": "HI : Above high reference limit"
                },
                "specimen": {
                    "reference": "urn:uuid:6454a722-ed37-4ae7-ade3-fdb0b0a960d0"
                },
                "referenceRange": [
                    {
                        "low": {
                            "value": 76
                        },
                        "high": {
                            "value": 100
                        }
                    }
                ],
                "related": [
                    {
                        "target": {
                            "reference": "urn:uuid:6c19b2b2-8777-457f-a7dd-3c10656eee3c"
                        }
                    }
                ]
            }
        },
        {
            "fullUrl": "urn:uuid:edc76308-f1eb-4e51-a209-05d9aaad59d4",
            "resource": {
                "resourceType": "Observation",
                "id": "edc76308-f1eb-4e51-a209-05d9aaad59d4",
                "meta": {
                    "profile": [
                        "https://fhir.hl7.org.uk/STU3/StructureDefinition/CareConnect-Observation-1"
                    ]
                },
                "status": "unknown",
                "code": {
                    "coding": [
                        {
                            "system": "http://read.info/readv2",
                            "code": "428..",
                            "display": "Mean corpusc. haemoglobin(MCH)"
                        }
                    ]
                },
                "subject": {
                    "reference": "urn:uuid:d06c78c4-a207-45e2-906a-09eeb741d5e2"
                },
                "performer": [
                    {
                        "reference": "urn:uuid:8df314f9-d8a3-43b5-ae0c-661dd9ce29fc"
                    },
                    {
                        "reference": "urn:uuid:f12cddbc-4c08-4a9e-8c39-6433fcd93f10"
                    }
                ],
                "valueQuantity": {
                    "value": 38.7,
                    "unit": "pg"
                },
                "interpretation": {
                    "text": "HI : Above high reference limit"
                },
                "specimen": {
                    "reference": "urn:uuid:6454a722-ed37-4ae7-ade3-fdb0b0a960d0"
                },
                "referenceRange": [
                    {
                        "low": {
                            "value": 26
                        },
                        "high": {
                            "value": 32
                        }
                    }
                ],
                "related": [
                    {
                        "target": {
                            "reference": "urn:uuid:6c19b2b2-8777-457f-a7dd-3c10656eee3c"
                        }
                    }
                ]
            }
        },
        {
            "fullUrl": "urn:uuid:34d06eef-7c1f-4aed-8bad-a7e4255b7fdd",
            "resource": {
                "resourceType": "Observation",
                "id": "34d06eef-7c1f-4aed-8bad-a7e4255b7fdd",
                "meta": {
                    "profile": [
                        "https://fhir.hl7.org.uk/STU3/StructureDefinition/CareConnect-Observation-1"
                    ]
                },
                "status": "unknown",
                "code": {
                    "coding": [
                        {
                            "system": "http://read.info/readv2",
                            "code": "429..",
                            "display": "Mean corpusc. Hb. conc. (MCHC)"
                        }
                    ]
                },
                "subject": {
                    "reference": "urn:uuid:d06c78c4-a207-45e2-906a-09eeb741d5e2"
                },
                "performer": [
                    {
                        "reference": "urn:uuid:8df314f9-d8a3-43b5-ae0c-661dd9ce29fc"
                    },
                    {
                        "reference": "urn:uuid:f12cddbc-4c08-4a9e-8c39-6433fcd93f10"
                    }
                ],
                "valueQuantity": {
                    "value": 34.8,
                    "unit": "g/dL"
                },
                "specimen": {
                    "reference": "urn:uuid:6454a722-ed37-4ae7-ade3-fdb0b0a960d0"
                },
                "referenceRange": [
                    {
                        "low": {
                            "value": 30
                        },
                        "high": {
                            "value": 37
                        }
                    }
                ],
                "related": [
                    {
                        "target": {
                            "reference": "urn:uuid:6c19b2b2-8777-457f-a7dd-3c10656eee3c"
                        }
                    }
                ]
            }
        },
        {
            "fullUrl": "urn:uuid:c9987c65-e73f-482d-a182-aec026e967db",
            "resource": {
                "resourceType": "Observation",
                "id": "c9987c65-e73f-482d-a182-aec026e967db",
                "meta": {
                    "profile": [
                        "https://fhir.hl7.org.uk/STU3/StructureDefinition/CareConnect-Observation-1"
                    ]
                },
                "status": "unknown",
                "code": {
                    "coding": [
                        {
                            "system": "http://read.info/readv2",
                            "code": "42P..",
                            "display": "Platelet count"
                        }
                    ]
                },
                "subject": {
                    "reference": "urn:uuid:d06c78c4-a207-45e2-906a-09eeb741d5e2"
                },
                "performer": [
                    {
                        "reference": "urn:uuid:8df314f9-d8a3-43b5-ae0c-661dd9ce29fc"
                    },
                    {
                        "reference": "urn:uuid:f12cddbc-4c08-4a9e-8c39-6433fcd93f10"
                    }
                ],
                "valueQuantity": {
                    "value": 220,
                    "unit": "10*9/L"
                },
                "specimen": {
                    "reference": "urn:uuid:6454a722-ed37-4ae7-ade3-fdb0b0a960d0"
                },
                "referenceRange": [
                    {
                        "low": {
                            "value": 150
                        },
                        "high": {
                            "value": 600
                        }
                    }
                ],
                "related": [
                    {
                        "target": {
                            "reference": "urn:uuid:6c19b2b2-8777-457f-a7dd-3c10656eee3c"
                        }
                    }
                ]
            }
        },
        {
            "fullUrl": "urn:uuid:9c598cfb-3198-4806-8060-44de83719025",
            "resource": {
                "resourceType": "Observation",
                "id": "9c598cfb-3198-4806-8060-44de83719025",
                "meta": {
                    "profile": [
                        "https://fhir.hl7.org.uk/STU3/StructureDefinition/CareConnect-Observation-1"
                    ]
                },
                "status": "unknown",
                "code": {
                    "coding": [
                        {
                            "system": "http://read.info/readv2",
                            "code": "42J..",
                            "display": "Neutrophil count"
                        }
                    ]
                },
                "subject": {
                    "reference": "urn:uuid:d06c78c4-a207-45e2-906a-09eeb741d5e2"
                },
                "performer": [
                    {
                        "reference": "urn:uuid:8df314f9-d8a3-43b5-ae0c-661dd9ce29fc"
                    },
                    {
                        "reference": "urn:uuid:f12cddbc-4c08-4a9e-8c39-6433fcd93f10"
                    }
                ],
                "valueQuantity": {
                    "value": 7.4,
                    "unit": "10*9/L"
                },
                "specimen": {
                    "reference": "urn:uuid:6454a722-ed37-4ae7-ade3-fdb0b0a960d0"
                },
                "referenceRange": [
                    {
                        "low": {
                            "value": 2.0
                        },
                        "high": {
                            "value": 7.5
                        }
                    }
                ],
                "related": [
                    {
                        "target": {
                            "reference": "urn:uuid:6c19b2b2-8777-457f-a7dd-3c10656eee3c"
                        }
                    }
                ]
            }
        },
        {
            "fullUrl": "urn:uuid:42c41cc5-7fd7-47d1-8920-708840ee69d3",
            "resource": {
                "resourceType": "Observation",
                "id": "42c41cc5-7fd7-47d1-8920-708840ee69d3",
                "meta": {
                    "profile": [
                        "https://fhir.hl7.org.uk/STU3/StructureDefinition/CareConnect-Observation-1"
                    ]
                },
                "status": "unknown",
                "code": {
                    "coding": [
                        {
                            "system": "http://read.info/readv2",
                            "code": "42M..",
                            "display": "Lymphocyte count"
                        }
                    ]
                },
                "subject": {
                    "reference": "urn:uuid:d06c78c4-a207-45e2-906a-09eeb741d5e2"
                },
                "performer": [
                    {
                        "reference": "urn:uuid:8df314f9-d8a3-43b5-ae0c-661dd9ce29fc"
                    },
                    {
                        "reference": "urn:uuid:f12cddbc-4c08-4a9e-8c39-6433fcd93f10"
                    }
                ],
                "valueQuantity": {
                    "value": 0.1,
                    "unit": "10*9/L"
                },
                "specimen": {
                    "reference": "urn:uuid:6454a722-ed37-4ae7-ade3-fdb0b0a960d0"
                },
                "referenceRange": [
                    {
                        "low": {
                            "value": 1.0
                        },
                        "high": {
                            "value": 4.0
                        }
                    }
                ],
                "related": [
                    {
                        "target": {
                            "reference": "urn:uuid:6c19b2b2-8777-457f-a7dd-3c10656eee3c"
                        }
                    }
                ]
            }
        },
        {
            "fullUrl": "urn:uuid:fe14ff7e-d6ff-45db-a117-714efc925edb",
            "resource": {
                "resourceType": "Observation",
                "id": "fe14ff7e-d6ff-45db-a117-714efc925edb",
                "meta": {
                    "profile": [
                        "https://fhir.hl7.org.uk/STU3/StructureDefinition/CareConnect-Observation-1"
                    ]
                },
                "status": "unknown",
                "code": {
                    "coding": [
                        {
                            "system": "http://read.info/readv2",
                            "code": "42N..",
                            "display": "Monocyte count"
                        }
                    ]
                },
                "subject": {
                    "reference": "urn:uuid:d06c78c4-a207-45e2-906a-09eeb741d5e2"
                },
                "performer": [
                    {
                        "reference": "urn:uuid:8df314f9-d8a3-43b5-ae0c-661dd9ce29fc"
                    },
                    {
                        "reference": "urn:uuid:f12cddbc-4c08-4a9e-8c39-6433fcd93f10"
                    }
                ],
                "valueQuantity": {
                    "value": 0.1,
                    "unit": "10*9/L"
                },
                "specimen": {
                    "reference": "urn:uuid:6454a722-ed37-4ae7-ade3-fdb0b0a960d0"
                },
                "referenceRange": [
                    {
                        "low": {
                            "value": 0.2
                        },
                        "high": {
                            "value": 1.0
                        }
                    }
                ],
                "related": [
                    {
                        "target": {
                            "reference": "urn:uuid:6c19b2b2-8777-457f-a7dd-3c10656eee3c"
                        }
                    }
                ]
            }
        },
        {
            "fullUrl": "urn:uuid:d6e61107-39a0-4dd3-b1bb-993dae96682e",
            "resource": {
                "resourceType": "Observation",
                "id": "d6e61107-39a0-4dd3-b1bb-993dae96682e",
                "meta": {
                    "profile": [
                        "https://fhir.hl7.org.uk/STU3/StructureDefinition/CareConnect-Observation-1"
                    ]
                },
                "status": "unknown",
                "code": {
                    "coding": [
                        {
                            "system": "http://read.info/readv2",
                            "code": "42K..",
                            "display": "Eosinophil count"
                        }
                    ]
                },
                "subject": {
                    "reference": "urn:uuid:d06c78c4-a207-45e2-906a-09eeb741d5e2"
                },
                "performer": [
                    {
                        "reference": "urn:uuid:8df314f9-d8a3-43b5-ae0c-661dd9ce29fc"
                    },
                    {
                        "reference": "urn:uuid:f12cddbc-4c08-4a9e-8c39-6433fcd93f10"
                    }
                ],
                "valueQuantity": {
                    "value": 0.1,
                    "comparator": "<",
                    "unit": "10*9/L"
                },
                "specimen": {
                    "reference": "urn:uuid:6454a722-ed37-4ae7-ade3-fdb0b0a960d0"
                },
                "referenceRange": [
                    {
                        "low": {
                            "value": 0
                        },
                        "high": {
                            "value": 0.6
                        }
                    }
                ],
                "related": [
                    {
                        "target": {
                            "reference": "urn:uuid:6c19b2b2-8777-457f-a7dd-3c10656eee3c"
                        }
                    }
                ]
            }
        },
        {
            "fullUrl": "urn:uuid:c15f5147-0572-49ac-a6c6-da2f8cb69aa6",
            "resource": {
                "resourceType": "Observation",
                "id": "c15f5147-0572-49ac-a6c6-da2f8cb69aa6",
                "meta": {
                    "profile": [
                        "https://fhir.hl7.org.uk/STU3/StructureDefinition/CareConnect-Observation-1"
                    ]
                },
                "status": "unknown",
                "code": {
                    "coding": [
                        {
                            "system": "http://read.info/readv2",
                            "code": "42L..",
                            "display": "Basophil count"
                        }
                    ]
                },
                "subject": {
                    "reference": "urn:uuid:d06c78c4-a207-45e2-906a-09eeb741d5e2"
                },
                "performer": [
                    {
                        "reference": "urn:uuid:8df314f9-d8a3-43b5-ae0c-661dd9ce29fc"
                    },
                    {
                        "reference": "urn:uuid:f12cddbc-4c08-4a9e-8c39-6433fcd93f10"
                    }
                ],
                "valueQuantity": {
                    "value": 0.0,
                    "unit": "10*9/L"
                },
                "specimen": {
                    "reference": "urn:uuid:6454a722-ed37-4ae7-ade3-fdb0b0a960d0"
                },
                "referenceRange": [
                    {
                        "low": {
                            "value": 0.00
                        },
                        "high": {
                            "value": 0.3
                        }
                    }
                ],
                "related": [
                    {
                        "target": {
                            "reference": "urn:uuid:6c19b2b2-8777-457f-a7dd-3c10656eee3c"
                        }
                    }
                ]
            }
        }
    ]
}