{
    "resourceType": "Bundle",
    "id": "784354df-e168-4012-bf4f-d62fb58a0390",
    "meta": {
        "lastUpdated": "2021-06-07T12:30:24.322+01:00",
        "profile": [ "https://fhir.nhs.uk/STU3/StructureDefinition/ITK-Message-Bundle-1" ]
    },
    "identifier": {
        "system": "https://tools.ietf.org/html/rfc4122",
        "value": "1930e1f1-354e-45c0-98fe-071898a578e5"
    },
    "type": "message",
    "entry": [ {
        "fullUrl": "urn:uuid:196e0f16-f4d3-4543-b047-f6b326c12bd8",
        "resource": {
            "resourceType": "MessageHeader",
            "id": "196e0f16-f4d3-4543-b047-f6b326c12bd8",
            "meta": {
                "profile": [ "https://fhir.nhs.uk/STU3/StructureDefinition/ITK-MessageHeader-2" ]
            },
            "extension": [ {
                "url": "https://fhir.nhs.uk/STU3/StructureDefinition/Extension-ITK-MessageHandling-2",
                "extension": [ {
                    "url": "BusAckRequested",
                    "valueBoolean": true
                }, {
                    "url": "InfAckRequested",
                    "valueBoolean": true
                }, {
                    "url": "RecipientType",
                    "valueCoding": {
                        "system": "https://fhir.nhs.uk/STU3/CodeSystem/ITK-RecipientType-1",
                        "code": "FA",
                        "display": "For Action"
                    }
                }, {
                    "url": "SenderReference",
                    "valueString": "None"
                }, {
                    "url": "LocalExtension",
                    "valueString": "None"
                } ]
            } ],
            "event": {
                "system": "https://fhir.nhs.uk/STU3/CodeSystem/ITK-MessageEvent-2",
                "code": "ITK012M",
                "display": "ITK National Pathology"
            },
            "receiver": {
                "reference": "urn:uuid:ad8885c5-d54c-42db-8532-180f89e39208"
            },
            "sender": {
                "reference": "urn:uuid:36066391-67bd-4b3e-bfa8-0d98b1a67e6f"
            },
            "timestamp": "2009-11-13T15:19:00.000+00:00",
            "source": {
                "endpoint": "lab_results_mailbox"
            },
            "responsible": {
                "reference": "urn:uuid:36066391-67bd-4b3e-bfa8-0d98b1a67e6f"
            },
            "focus": [ {
                "reference": "urn:uuid:3e7a7fa6-3da7-44b4-9bca-56a55a0df9da"
            } ]
        }
    }, {
        "fullUrl": "urn:uuid:29398e30-d77e-4c57-a83e-563fce07cc97",
        "resource": {
            "resourceType": "Patient",
            "id": "29398e30-d77e-4c57-a83e-563fce07cc97",
            "meta": {
                "profile": [ "https://fhir.hl7.org.uk/STU3/StructureDefinition/CareConnect-Patient-1" ]
            },
            "identifier": [ {
                "extension": [ {
                    "url": "https://fhir.hl7.org.uk/STU3/StructureDefinition/Extension-CareConnect-NHSNumberVerificationStatus-1",
                    "valueCodeableConcept": {
                        "coding": [ {
                            "system": "https://fhir.hl7.org.uk/STU3/CodeSystem/CareConnect-NHSNumberVerificationStatus-1",
                            "code": "01",
                            "display": "Number present and verified"
                        } ]
                    }
                } ],
                "system": "https://fhir.nhs.uk/Id/nhs-number",
                "value": "8982821201"
            } ],
            "name": [ {
                "use": "official",
                "family": "GRIMSHAW",
                "given": [ "BRETT" ],
                "prefix": [ "CAPT" ]
            } ],
            "gender": "male",
            "birthDate": "1938-02-06",
            "address": [ {
                "line": [ "HIGHWOOD BUNGALOW", "EXETER", "DEVON" ],
                "postalCode": "TQ14 4QJ"
            } ]
        }
    }, {
        "fullUrl": "urn:uuid:bb8dbe55-881a-4aae-b67a-80be127b594a",
        "resource": {
            "resourceType": "Practitioner",
            "id": "bb8dbe55-881a-4aae-b67a-80be127b594a",
            "meta": {
                "profile": [ "https://fhir.hl7.org.uk/STU3/StructureDefinition/CareConnect-Practitioner-1" ]
            },
            "name": [ {
                "text": "BCSP Hub Manager"
            } ]
        }
    }, {
        "fullUrl": "urn:uuid:ad8885c5-d54c-42db-8532-180f89e39208",
        "resource": {
            "resourceType": "Organization",
            "id": "ad8885c5-d54c-42db-8532-180f89e39208",
            "meta": {
                "profile": [ "https://fhir.hl7.org.uk/STU3/StructureDefinition/CareConnect-Organization-1" ]
            }
        }
    }, {
        "fullUrl": "urn:uuid:e2c0f835-9018-4fa4-8e94-e445a40e3063",
        "resource": {
            "resourceType": "Practitioner",
            "id": "e2c0f835-9018-4fa4-8e94-e445a40e3063",
            "meta": {
                "profile": [ "https://fhir.hl7.org.uk/STU3/StructureDefinition/CareConnect-Practitioner-1" ]
            }
        }
    }, {
        "fullUrl": "urn:uuid:36066391-67bd-4b3e-bfa8-0d98b1a67e6f",
        "resource": {
            "resourceType": "Organization",
            "id": "36066391-67bd-4b3e-bfa8-0d98b1a67e6f",
            "meta": {
                "profile": [ "https://fhir.hl7.org.uk/STU3/StructureDefinition/CareConnect-Organization-1" ]
            },
            "type": [ {
                "coding": [ {
                    "code": "dept",
                    "display": "UNKNOWN"
                } ]
            } ],
            "name": "Southern Bowel Cancer Screening Pro:gramme Hub"
        }
    }, {
        "fullUrl": "urn:uuid:8d444a86-5ade-4400-9f24-6d3b8f776025",
        "resource": {
            "resourceType": "ProcedureRequest",
            "id": "8d444a86-5ade-4400-9f24-6d3b8f776025",
            "meta": {
                "profile": [ "https://fhir.hl7.org.uk/STU3/StructureDefinition/CareConnect-ProcedureRequest-1" ]
            },
            "status": "active",
            "intent": "order",
            "code": {
                "coding": [ {
                    "system": "http://snomed.info/sct",
                    "code": "15220000",
                    "display": "Laboratory test (procedure)"
                } ]
            },
            "subject": {
                "reference": "urn:uuid:29398e30-d77e-4c57-a83e-563fce07cc97"
            },
            "requester": {
                "agent": {
                    "reference": "urn:uuid:bb8dbe55-881a-4aae-b67a-80be127b594a"
                },
                "onBehalfOf": {
                    "reference": "urn:uuid:ad8885c5-d54c-42db-8532-180f89e39208"
                }
            },
            "performer": {
                "reference": "urn:uuid:e2c0f835-9018-4fa4-8e94-e445a40e3063"
            }
        }
    }, {
        "fullUrl": "urn:uuid:3e7a7fa6-3da7-44b4-9bca-56a55a0df9da",
        "resource": {
            "resourceType": "DiagnosticReport",
            "id": "3e7a7fa6-3da7-44b4-9bca-56a55a0df9da",
            "meta": {
                "profile": [ "https://fhir.hl7.org.uk/STU3/StructureDefinition/CareConnect-DiagnosticReport-1" ]
            },
            "identifier": [ {
                "system": "https://tools.ietf.org/html/rfc4122",
                "value": "34/1"
            } ],
            "basedOn": [ {
                "reference": "urn:uuid:8d444a86-5ade-4400-9f24-6d3b8f776025"
            } ],
            "status": "unknown",
            "code": {
                "coding": [ {
                    "system": "http://snomed.info/sct",
                    "code": "721981007",
                    "display": "Diagnostic studies report"
                } ]
            },
            "subject": {
                "reference": "urn:uuid:29398e30-d77e-4c57-a83e-563fce07cc97"
            },
            "issued": "2009-11-10T11:45:00.000+00:00",
            "performer": [ {
                "actor": {
                    "reference": "urn:uuid:36066391-67bd-4b3e-bfa8-0d98b1a67e6f"
                }
            }, {
                "actor": {
                    "reference": "urn:uuid:e2c0f835-9018-4fa4-8e94-e445a40e3063"
                }
            } ],
            "specimen": [ {
                "reference": "urn:uuid:88aa4d30-df5c-4b60-8b3c-55bfa049c0eb"
            } ],
            "result": [ {
                "reference": "urn:uuid:d343def6-e51e-4edd-a25f-0fbd18655a3e"
            } ]
        }
    }, {
        "fullUrl": "urn:uuid:88aa4d30-df5c-4b60-8b3c-55bfa049c0eb",
        "resource": {
            "resourceType": "Specimen",
            "id": "88aa4d30-df5c-4b60-8b3c-55bfa049c0eb",
            "meta": {
                "profile": [ "https://fhir.hl7.org.uk/STU3/StructureDefinition/CareConnect-Specimen-1" ]
            },
            "type": {
                "coding": [ {
                    "system": "http://snomed.info/sct",
                    "display": "Faeces"
                } ]
            },
            "subject": {
                "reference": "urn:uuid:29398e30-d77e-4c57-a83e-563fce07cc97"
            }
        }
    }, {
        "fullUrl": "urn:uuid:d343def6-e51e-4edd-a25f-0fbd18655a3e",
        "resource": {
            "resourceType": "Observation",
            "id": "d343def6-e51e-4edd-a25f-0fbd18655a3e",
            "meta": {
                "profile": [ "https://fhir.hl7.org.uk/STU3/StructureDefinition/CareConnect-Observation-1" ]
            },
            "status": "unknown",
            "code": {
                "coding": [ {
                    "system": "http://snomed.info/sct",
                    "code": "368481000000103",
                    "display": "BCS?:FOB result"
                } ]
            },
            "subject": {
                "reference": "urn:uuid:29398e30-d77e-4c57-a83e-563fce07cc97"
            },
            "performer": [ {
                "reference": "urn:uuid:36066391-67bd-4b3e-bfa8-0d98b1a67e6f"
            }, {
                "reference": "urn:uuid:e2c0f835-9018-4fa4-8e94-e445a40e3063"
            } ],
            "valueCodeableConcept": {
                "coding": [ {
                    "system": "http://snomed.info/sct",
                    "code": "375211000000108",
                    "display": "Bowel cancer screening programme FOB test normal (finding)"
                } ]
            },
            "comment": "Normal. Sent following an initial single Negative result or following 2 Negative results after an initial Weak Positive",
            "specimen": {
                "reference": "urn:uuid:88aa4d30-df5c-4b60-8b3c-55bfa049c0eb"
            }
        }
    } ]
}