{
    "resourceType": "Bundle",
    "id": "af99c62f-f400-4919-8758-2292fbe7311b",
    "meta": {
        "lastUpdated": "2021-04-27T13:33:03.315+01:00",
        "profile": [
            "https://fhir.nhs.uk/STU3/StructureDefinition/ITK-Message-Bundle-1"
        ]
    },
    "identifier": {
        "system": "https://tools.ietf.org/html/rfc4122",
        "value": "814f76ca-8671-4c5d-b8a7-393507e5a366"
    },
    "type": "message",
    "entry": [
        {
            "fullUrl": "urn:uuid:62f4bbf1-6b3f-4d34-a02c-9652983fcc52",
            "resource": {
                "resourceType": "MessageHeader",
                "id": "62f4bbf1-6b3f-4d34-a02c-9652983fcc52",
                "meta": {
                    "profile": [
                        "https://fhir.nhs.uk/STU3/StructureDefinition/ITK-MessageHeader-2"
                    ]
                },
                "extension": [
                    {
                        "url": "https://fhir.nhs.uk/STU3/StructureDefinition/Extension-ITK-MessageHandling-2",
                        "extension": [
                            {
                                "url": "BusAckRequested",
                                "valueBoolean": true
                            },
                            {
                                "url": "InfAckRequested",
                                "valueBoolean": true
                            },
                            {
                                "url": "RecipientType",
                                "valueCoding": {
                                    "system": "https://fhir.nhs.uk/STU3/CodeSystem/ITK-RecipientType-1",
                                    "code": "FA",
                                    "display": "For Action"
                                }
                            },
                            {
                                "url": "SenderReference",
                                "valueString": "None"
                            },
                            {
                                "url": "LocalExtension",
                                "valueString": "None"
                            }
                        ]
                    }
                ],
                "event": {
                    "system": "https://fhir.nhs.uk/STU3/CodeSystem/ITK-MessageEvent-2",
                    "code": "ITK012M",
                    "display": "ITK National Pathology"
                },
                "receiver": {
                    "reference": "urn:uuid:82cb8930-e115-4822-971d-e07d6b01214f"
                },
                "sender": {
                    "reference": "urn:uuid:0fc9c2da-22c6-4096-b367-09cb98cf0dec"
                },
                "timestamp": "2009-11-13T15:19:00.000+00:00",
                "source": {
                    "endpoint": "lab_results_mailbox"
                },
                "responsible": {
                    "reference": "urn:uuid:0fc9c2da-22c6-4096-b367-09cb98cf0dec"
                },
                "focus": [
                    {
                        "reference": "urn:uuid:30e52680-f717-46af-8087-54dace4360a4"
                    }
                ]
            }
        },
        {
            "fullUrl": "urn:uuid:777aa63a-cd73-4529-8c4a-bee3d82c8544",
            "resource": {
                "resourceType": "Patient",
                "id": "777aa63a-cd73-4529-8c4a-bee3d82c8544",
                "meta": {
                    "profile": [
                        "https://fhir.hl7.org.uk/STU3/StructureDefinition/CareConnect-Patient-1"
                    ]
                },
                "name": [
                    {
                        "use": "official",
                        "family": "EL-ASSAN",
                        "given": [
                            "HABIB"
                        ]
                    }
                ],
                "gender": "male",
                "birthDate": "1957-01-16",
                "address": [
                    {
                        "line": [
                            "HIGHWOOD BUNGALOW",
                            "EXETER",
                            "DEVON"
                        ],
                        "postalCode": "TQ14 4QJ"
                    }
                ]
            }
        },
        {
            "fullUrl": "urn:uuid:c9bfdcc5-c4e6-4c01-94da-ddc8dc196b13",
            "resource": {
                "resourceType": "Practitioner",
                "id": "c9bfdcc5-c4e6-4c01-94da-ddc8dc196b13",
                "meta": {
                    "profile": [
                        "https://fhir.hl7.org.uk/STU3/StructureDefinition/CareConnect-Practitioner-1"
                    ]
                },
                "name": [
                    {
                        "text": "BCSP Hub Manager"
                    }
                ]
            }
        },
        {
            "fullUrl": "urn:uuid:82cb8930-e115-4822-971d-e07d6b01214f",
            "resource": {
                "resourceType": "Organization",
                "id": "82cb8930-e115-4822-971d-e07d6b01214f",
                "meta": {
                    "profile": [
                        "https://fhir.hl7.org.uk/STU3/StructureDefinition/CareConnect-Organization-1"
                    ]
                }
            }
        },
        {
            "fullUrl": "urn:uuid:91846022-c85e-44e1-b675-856b547e8248",
            "resource": {
                "resourceType": "Practitioner",
                "id": "91846022-c85e-44e1-b675-856b547e8248",
                "meta": {
                    "profile": [
                        "https://fhir.hl7.org.uk/STU3/StructureDefinition/CareConnect-Practitioner-1"
                    ]
                }
            }
        },
        {
            "fullUrl": "urn:uuid:0fc9c2da-22c6-4096-b367-09cb98cf0dec",
            "resource": {
                "resourceType": "Organization",
                "id": "0fc9c2da-22c6-4096-b367-09cb98cf0dec",
                "meta": {
                    "profile": [
                        "https://fhir.hl7.org.uk/STU3/StructureDefinition/CareConnect-Organization-1"
                    ]
                },
                "type": [
                    {
                        "coding": [
                            {
                                "code": "dept",
                                "display": "UNKNOWN"
                            }
                        ]
                    }
                ],
                "name": "Southern Bowel Cancer Screening Pro:gramme Hub"
            }
        },
        {
            "fullUrl": "urn:uuid:dcd8d469-ec4e-41bd-a9bc-0c409971750c",
            "resource": {
                "resourceType": "ProcedureRequest",
                "id": "dcd8d469-ec4e-41bd-a9bc-0c409971750c",
                "meta": {
                    "profile": [
                        "https://fhir.hl7.org.uk/STU3/StructureDefinition/CareConnect-ProcedureRequest-1"
                    ]
                },
                "status": "active",
                "intent": "order",
                "code": {
                    "text": "unknown"
                },
                "subject": {
                    "reference": "urn:uuid:777aa63a-cd73-4529-8c4a-bee3d82c8544"
                },
                "requester": {
                    "agent": {
                        "reference": "urn:uuid:c9bfdcc5-c4e6-4c01-94da-ddc8dc196b13"
                    },
                    "onBehalfOf": {
                        "reference": "urn:uuid:82cb8930-e115-4822-971d-e07d6b01214f"
                    }
                },
                "performer": {
                    "reference": "urn:uuid:91846022-c85e-44e1-b675-856b547e8248"
                }
            }
        },
        {
            "fullUrl": "urn:uuid:30e52680-f717-46af-8087-54dace4360a4",
            "resource": {
                "resourceType": "DiagnosticReport",
                "id": "30e52680-f717-46af-8087-54dace4360a4",
                "meta": {
                    "profile": [
                        "https://fhir.hl7.org.uk/STU3/StructureDefinition/CareConnect-DiagnosticReport-1"
                    ]
                },
                "identifier": [
                    {
                        "system": "https://tools.ietf.org/html/rfc4122",
                        "value": "34/1"
                    }
                ],
                "basedOn": [
                    {
                        "reference": "urn:uuid:dcd8d469-ec4e-41bd-a9bc-0c409971750c"
                    }
                ],
                "status": "unknown",
                "code": {
                    "coding": [
                        {
                            "system": "http://snomed.info/sct",
                            "code": "721981007",
                            "display": "Diagnostic studies report"
                        }
                    ]
                },
                "subject": {
                    "reference": "urn:uuid:777aa63a-cd73-4529-8c4a-bee3d82c8544"
                },
                "issued": "2009-11-10T11:45:00.000+00:00",
                "performer": [
                    {
                        "actor": {
                            "reference": "urn:uuid:0fc9c2da-22c6-4096-b367-09cb98cf0dec"
                        }
                    },
                    {
                        "actor": {
                            "reference": "urn:uuid:91846022-c85e-44e1-b675-856b547e8248"
                        }
                    }
                ],
                "specimen": [
                    {
                        "reference": "urn:uuid:d3d7ea66-af45-4086-a556-8db3ea36695c"
                    }
                ],
                "result": [
                    {
                        "reference": "urn:uuid:baa98f0b-9a99-4f84-bf28-056531ea0183"
                    }
                ]
            }
        },
        {
            "fullUrl": "urn:uuid:d3d7ea66-af45-4086-a556-8db3ea36695c",
            "resource": {
                "resourceType": "Specimen",
                "id": "d3d7ea66-af45-4086-a556-8db3ea36695c",
                "meta": {
                    "profile": [
                        "https://fhir.hl7.org.uk/STU3/StructureDefinition/CareConnect-Specimen-1"
                    ]
                },
                "type": {
                    "coding": [
                        {
                            "system": "http://snomed.info/sct",
                            "display": "Faeces"
                        }
                    ]
                },
                "subject": {
                    "reference": "urn:uuid:777aa63a-cd73-4529-8c4a-bee3d82c8544"
                }
            }
        },
        {
            "fullUrl": "urn:uuid:baa98f0b-9a99-4f84-bf28-056531ea0183",
            "resource": {
                "resourceType": "Observation",
                "id": "baa98f0b-9a99-4f84-bf28-056531ea0183",
                "meta": {
                    "profile": [
                        "https://fhir.hl7.org.uk/STU3/StructureDefinition/CareConnect-Observation-1"
                    ]
                },
                "status": "unknown",
                "code": {
                    "coding": [
                        {
                            "system": "http://snomed.info/sct",
                            "code": "368481000000103",
                            "display": "BCS?:FOB result"
                        }
                    ]
                },
                "subject": {
                    "reference": "urn:uuid:777aa63a-cd73-4529-8c4a-bee3d82c8544"
                },
                "performer": [
                    {
                        "reference": "urn:uuid:0fc9c2da-22c6-4096-b367-09cb98cf0dec"
                    },
                    {
                        "reference": "urn:uuid:91846022-c85e-44e1-b675-856b547e8248"
                    }
                ],
                "valueCodeableConcept": {
                    "coding": [
                        {
                            "system": "http://snomed.info/sct",
                            "code": "375211000000108",
                            "display": "Bowel cancer screening programme FOB test normal (finding)"
                        }
                    ]
                },
                "comment": "Normal. Sent following an initial single Negative result or following 2 Negative results after an initial Weak Positive",
                "specimen": {
                    "reference": "urn:uuid:d3d7ea66-af45-4086-a556-8db3ea36695c"
                }
            }
        }
    ]
}