{
    "resourceType": "Bundle",
    "id": "6d5b782b-9781-4d99-9063-afc5137ca621",
    "meta": {
        "lastUpdated": "2021-04-22T14:09:07.772+02:00",
        "profile": [
            "https://fhir.nhs.uk/STU3/StructureDefinition/ITK-Message-Bundle-1"
        ]
    },
    "identifier": {
        "system": "https://tools.ietf.org/html/rfc4122",
        "value": "1833c503-b1cc-4a9f-8014-f229ec89fc14"
    },
    "type": "message",
    "entry": [
        {
            "fullUrl": "urn:uuid:6d4cc05d-b408-41a5-be62-3f9eecf6590f",
            "resource": {
                "resourceType": "MessageHeader",
                "id": "6d4cc05d-b408-41a5-be62-3f9eecf6590f",
                "meta": {
                    "profile": [
                        "https://fhir.nhs.uk/STU3/StructureDefinition/ITK-MessageHeader-2"
                    ]
                },
                "extension": [
                    {
                        "url": "https://fhir.nhs.uk/STU3/StructureDefinition/Extension-ITK-MessageHandling-2",
                        "extension": [
                            {
                                "url": "BusAckRequested",
                                "valueBoolean": true
                            },
                            {
                                "url": "InfAckRequested",
                                "valueBoolean": true
                            },
                            {
                                "url": "RecipientType",
                                "valueCoding": {
                                    "system": "https://fhir.nhs.uk/STU3/CodeSystem/ITK-RecipientType-1",
                                    "code": "FA",
                                    "display": "For Action"
                                }
                            },
                            {
                                "url": "SenderReference",
                                "valueString": "None"
                            },
                            {
                                "url": "LocalExtension",
                                "valueString": "None"
                            }
                        ]
                    }
                ],
                "event": {
                    "system": "https://fhir.nhs.uk/STU3/CodeSystem/ITK-MessageEvent-2",
                    "code": "ITK012M",
                    "display": "ITK National Pathology"
                },
                "receiver": {
                    "reference": "urn:uuid:f58d219f-609f-4537-ac89-6f2e025d371b"
                },
                "sender": {
                    "reference": "urn:uuid:ebc15eb1-a81a-411b-8882-7487b9304e2f"
                },
                "timestamp": "2010-03-01T18:51:00.000+00:00",
                "source": {
                    "endpoint": "lab_results_mailbox"
                },
                "responsible": {
                    "reference": "urn:uuid:ebc15eb1-a81a-411b-8882-7487b9304e2f"
                },
                "focus": [
                    {
                        "reference": "urn:uuid:6753cbd2-df94-48f8-918a-f0252400a107"
                    }
                ]
            }
        },
        {
            "fullUrl": "urn:uuid:1b894dbb-f9f7-4b90-9997-cb378eb61fa3",
            "resource": {
                "resourceType": "Patient",
                "id": "1b894dbb-f9f7-4b90-9997-cb378eb61fa3",
                "meta": {
                    "profile": [
                        "https://fhir.hl7.org.uk/STU3/StructureDefinition/CareConnect-Patient-1"
                    ]
                },
                "identifier": [
                    {
                        "system": "https://fhir.nhs.uk/Id/nhs-number",
                        "value": "8982821201"
                    }
                ],
                "name": [
                    {
                        "family": "GRIMSHAW",
                        "given": [
                            "BRETT"
                        ],
                        "prefix": [
                            "CAPT"
                        ]
                    }
                ],
                "gender": "male",
                "birthDate": "1938-02-06",
                "address": [
                    {
                        "line": [
                            "HIGHWOOD BUNGALOW",
                            "EXETER",
                            "DEVON"
                        ],
                        "postalCode": "TQ14 4QJ"
                    }
                ]
            }
        },
        {
            "fullUrl": "urn:uuid:7f73af59-1076-42ba-8920-1971a9b69075",
            "resource": {
                "resourceType": "Practitioner",
                "id": "7f73af59-1076-42ba-8920-1971a9b69075",
                "meta": {
                    "profile": [
                        "https://fhir.hl7.org.uk/STU3/StructureDefinition/CareConnect-Practitioner-1"
                    ]
                },
                "name": [
                    {
                        "text": "BCSP Hub Manager"
                    }
                ]
            }
        },
        {
            "fullUrl": "urn:uuid:f58d219f-609f-4537-ac89-6f2e025d371b",
            "resource": {
                "resourceType": "Organization",
                "id": "f58d219f-609f-4537-ac89-6f2e025d371b",
                "meta": {
                    "profile": [
                        "https://fhir.hl7.org.uk/STU3/StructureDefinition/CareConnect-Organization-1"
                    ]
                }
            }
        },
        {
            "fullUrl": "urn:uuid:3b042a12-0349-48ee-947f-3a84df0e72b4",
            "resource": {
                "resourceType": "Practitioner",
                "id": "3b042a12-0349-48ee-947f-3a84df0e72b4",
                "meta": {
                    "profile": [
                        "https://fhir.hl7.org.uk/STU3/StructureDefinition/CareConnect-Practitioner-1"
                    ]
                }
            }
        },
        {
            "fullUrl": "urn:uuid:ebc15eb1-a81a-411b-8882-7487b9304e2f",
            "resource": {
                "resourceType": "Organization",
                "id": "ebc15eb1-a81a-411b-8882-7487b9304e2f",
                "meta": {
                    "profile": [
                        "https://fhir.hl7.org.uk/STU3/StructureDefinition/CareConnect-Organization-1"
                    ]
                },
                "type": [
                    {
                        "coding": [
                            {
                                "code": "dept",
                                "display": "UNKNOWN"
                            }
                        ]
                    }
                ],
                "name": "Southern Bowel Cancer Screening Pro:gramme Hub"
            }
        },
        {
            "fullUrl": "urn:uuid:68fbfab6-98a7-431f-8660-ec7ced8fe0a4",
            "resource": {
                "resourceType": "ProcedureRequest",
                "id": "68fbfab6-98a7-431f-8660-ec7ced8fe0a4",
                "meta": {
                    "profile": [
                        "https://fhir.hl7.org.uk/STU3/StructureDefinition/CareConnect-ProcedureRequest-1"
                    ]
                },
                "intent": "order",
                "code": {
                    "text": "unknown"
                },
                "subject": {
                    "reference": "urn:uuid:1b894dbb-f9f7-4b90-9997-cb378eb61fa3"
                },
                "requester": {
                    "agent": {
                        "reference": "urn:uuid:7f73af59-1076-42ba-8920-1971a9b69075"
                    },
                    "onBehalfOf": {
                        "reference": "urn:uuid:f58d219f-609f-4537-ac89-6f2e025d371b"
                    }
                },
                "performer": {
                    "reference": "urn:uuid:3b042a12-0349-48ee-947f-3a84df0e72b4"
                }
            }
        },
        {
            "fullUrl": "urn:uuid:6753cbd2-df94-48f8-918a-f0252400a107",
            "resource": {
                "resourceType": "DiagnosticReport",
                "id": "6753cbd2-df94-48f8-918a-f0252400a107",
                "meta": {
                    "profile": [
                        "https://fhir.hl7.org.uk/STU3/StructureDefinition/CareConnect-DiagnosticReport-1"
                    ]
                },
                "identifier": [
                    {
                        "system": "https://tools.ietf.org/html/rfc4122",
                        "value": "34/1"
                    }
                ],
                "basedOn": [
                    {
                        "reference": "urn:uuid:68fbfab6-98a7-431f-8660-ec7ced8fe0a4"
                    }
                ],
                "status": "unknown",
                "code": {
                    "coding": [
                        {
                            "system": "http://snomed.info/sct",
                            "code": "721981007",
                            "display": "Diagnostic studies report"
                        }
                    ]
                },
                "subject": {
                    "reference": "urn:uuid:1b894dbb-f9f7-4b90-9997-cb378eb61fa3"
                },
                "issued": "2009-11-10T12:45:00.000+01:00",
                "performer": [
                    {
                        "actor": {
                            "reference": "urn:uuid:ebc15eb1-a81a-411b-8882-7487b9304e2f"
                        }
                    },
                    {
                        "actor": {
                            "reference": "urn:uuid:3b042a12-0349-48ee-947f-3a84df0e72b4"
                        }
                    }
                ],
                "specimen": [
                    {
                        "reference": "urn:uuid:04350d2e-d8d6-4f7e-835b-413a631d34d5"
                    }
                ],
                "result": [
                    {
                        "reference": "urn:uuid:ee102d6f-ee62-4b98-bd61-62d80b645378"
                    }
                ]
            }
        },
        {
            "fullUrl": "urn:uuid:04350d2e-d8d6-4f7e-835b-413a631d34d5",
            "resource": {
                "resourceType": "Specimen",
                "id": "04350d2e-d8d6-4f7e-835b-413a631d34d5",
                "meta": {
                    "profile": [
                        "https://fhir.hl7.org.uk/STU3/StructureDefinition/CareConnect-Specimen-1"
                    ]
                },
                "type": {
                    "coding": [
                        {
                            "system": "http://snomed.info/sct",
                            "display": "Faeces"
                        }
                    ]
                },
                "subject": {
                    "reference": "urn:uuid:1b894dbb-f9f7-4b90-9997-cb378eb61fa3"
                }
            }
        },
        {
            "fullUrl": "urn:uuid:ee102d6f-ee62-4b98-bd61-62d80b645378",
            "resource": {
                "resourceType": "Observation",
                "id": "ee102d6f-ee62-4b98-bd61-62d80b645378",
                "meta": {
                    "profile": [
                        "https://fhir.hl7.org.uk/STU3/StructureDefinition/CareConnect-Observation-1"
                    ]
                },
                "status": "unknown",
                "code": {
                    "coding": [
                        {
                            "system": "http://snomed.info/sct",
                            "code": "368481000000103",
                            "display": "BCS?:FOB result"
                        }
                    ]
                },
                "subject": {
                    "reference": "urn:uuid:1b894dbb-f9f7-4b90-9997-cb378eb61fa3"
                },
                "performer": [
                    {
                        "reference": "urn:uuid:ebc15eb1-a81a-411b-8882-7487b9304e2f"
                    },
                    {
                        "reference": "urn:uuid:3b042a12-0349-48ee-947f-3a84df0e72b4"
                    }
                ],
                "valueCodeableConcept": {
                    "coding": [
                        {
                            "system": "http://snomed.info/sct",
                            "code": "375211000000108",
                            "display": "Bowel cancer screening programme FOB test normal (finding)"
                        }
                    ]
                },
                "comment": "Normal. Sent following an initial single Negative result or following 2 Negative results after an initial Weak Positive",
                "specimen": {
                    "reference": "urn:uuid:04350d2e-d8d6-4f7e-835b-413a631d34d5"
                }
            }
        }
    ]
}