{
  "resourceType": "Bundle",
  "id": "7a47ae3b-85e0-46f9-8696-53ab9bd96e94",
  "meta": {
    "lastUpdated": "2021-03-16T17:18:30.443+00:00",
    "profile": [
      "https://fhir.nhs.uk/STU3/StructureDefinition/ITK-Message-Bundle-1"
    ]
  },
  "identifier": {
    "system": "https://tools.ietf.org/html/rfc4122",
    "value": "0e1aaa72-af29-4a00-996c-e9be01ce1884"
  },
  "type": "message",
  "entry": [
    {
      "fullUrl": "urn:uuid:39fdad79-5b90-4f30-9ffc-9bfe510012d6",
      "resource": {
        "resourceType": "Patient",
        "id": "39fdad79-5b90-4f30-9ffc-9bfe510012d6",
        "meta": {
          "profile": [
            "https://fhir.hl7.org.uk/STU3/StructureDefinition/CareConnect-Patient-1"
          ]
        },
        "identifier": [
          {
            "system": "https://fhir.nhs.uk/Id/nhs-number",
            "value": "9435468969"
          }
        ],
        "name": [
          {
            "family": "VIVATMA",
            "given": [
              "SHARADA"
            ]
          }
        ],
        "gender": "female",
        "birthDate": "1914-03-08",
        "address": [
          {
            "line": [ "HIGHWOOD BUNGALOW", "EXETER", "DEVON" ],
            "postalCode": "TQ14 4QJ"
          }
        ]
      }
    },
    {
      "fullUrl": "urn:uuid:f6f57c61-027b-4151-8cc9-70e39a7c3a1f",
      "resource": {
        "resourceType": "Practitioner",
        "id": "f6f57c61-027b-4151-8cc9-70e39a7c3a1f",
        "meta": {
          "profile": [
            "https://fhir.hl7.org.uk/STU3/StructureDefinition/CareConnect-Practitioner-1"
          ]
        },
        "name": [
          {
            "text": "BCSP Hub Manager"
          }
        ]
      }
    },
    {
      "fullUrl": "urn:uuid:7ea11d2e-c216-413e-ad94-a671bded7220",
      "resource": {
        "resourceType": "Organization",
        "id": "7ea11d2e-c216-413e-ad94-a671bded7220",
        "meta": {
          "profile": [
            "https://fhir.hl7.org.uk/STU3/StructureDefinition/CareConnect-Organization-1"
          ]
        },
        "type": [
          {
            "coding": [
              {
                "code": "dept",
                "display": "UNKNOWN"
              }
            ]
          }
        ],
        "name": "Southern Bowel Cancer Screening Pro:gramme Hub"
      }
    },
    {
      "fullUrl": "urn:uuid:e1dc16d4-459a-43ae-a71a-519b14185e2c",
      "resource": {
        "resourceType": "ProcedureRequest",
        "id": "e1dc16d4-459a-43ae-a71a-519b14185e2c",
        "meta": {
          "profile": [
            "https://fhir.hl7.org.uk/STU3/StructureDefinition/CareConnect-ProcedureRequest-1"
          ]
        },
        "status": "unknown",
        "intent": "order",
        "code": {
          "text": "unknown"
        },
        "subject": {
          "reference": "urn:uuid:39fdad79-5b90-4f30-9ffc-9bfe510012d6"
        },
        "requester": {
          "agent": {
            "reference": "urn:uuid:f6f57c61-027b-4151-8cc9-70e39a7c3a1f"
          }
        },
        "performer": {
          "reference": "urn:uuid:7ea11d2e-c216-413e-ad94-a671bded7220"
        },
        "note": [
          {
            "text": "COELIAC"
          }
        ]
      }
    },
    {
      "fullUrl": "urn:uuid:433cf0cd-ade3-4f16-9736-7274f3cf3bb8",
      "resource": {
        "resourceType": "DiagnosticReport",
        "id": "433cf0cd-ade3-4f16-9736-7274f3cf3bb8",
        "meta": {
          "profile": [
            "https://fhir.hl7.org.uk/STU3/StructureDefinition/CareConnect-DiagnosticReport-1"
          ]
        },
        "identifier": [
          {
            "value": "34/1"
          }
        ],
        "basedOn": [
          {
            "reference": "urn:uuid:e1dc16d4-459a-43ae-a71a-519b14185e2c"
          }
        ],
        "status": "unknown",
        "code": {
          "coding": [
            {
              "system": "http://snomed.info/sct",
              "code": "721981007",
              "display": "Diagnostic studies report"
            }
          ]
        },
        "subject": {
          "reference": "urn:uuid:39fdad79-5b90-4f30-9ffc-9bfe510012d6"
        },
        "issued": "2009-11-10T11:45:00.000+00:00",
        "performer": [
          {
            "actor": {
              "reference": "urn:uuid:7ea11d2e-c216-413e-ad94-a671bded7220"
            }
          }
        ],
        "specimen": [
          {
            "reference": "urn:uuid:df7496bc-5d48-4f0f-b744-412deed49727"
          }
        ],
        "result": [
          {
            "reference": "urn:uuid:aa8041cd-3b92-48e0-a363-ec13dd0ad5de"
          }
        ]
      }
    },
    {
      "fullUrl": "urn:uuid:df7496bc-5d48-4f0f-b744-412deed49727",
      "resource": {
        "resourceType": "Specimen",
        "id": "df7496bc-5d48-4f0f-b744-412deed49727",
        "meta": {
          "profile": [
            "https://fhir.hl7.org.uk/STU3/StructureDefinition/CareConnect-Specimen-1"
          ]
        },
        "type": {
          "coding": [
            {
              "system": "http://snomed.info/sct",
              "display": "Faeces"
            }
          ]
        },
        "subject": {
          "reference": "urn:uuid:39fdad79-5b90-4f30-9ffc-9bfe510012d6"
        }
      }
    },
    {
      "fullUrl": "urn:uuid:aa8041cd-3b92-48e0-a363-ec13dd0ad5de",
      "resource": {
        "resourceType": "Observation",
        "id": "aa8041cd-3b92-48e0-a363-ec13dd0ad5de",
        "meta": {
          "profile": [
            "https://fhir.hl7.org.uk/STU3/StructureDefinition/CareConnect-Observation-1"
          ]
        },
        "status": "unknown",
        "code": {
          "coding": [
            {
              "system": "http://snomed.info/sct",
              "code": "368481000000103",
              "display": "BCS?:FOB result"
            }
          ]
        },
        "subject": {
          "reference": "urn:uuid:39fdad79-5b90-4f30-9ffc-9bfe510012d6"
        },
        "performer": [
          {
            "reference": "urn:uuid:7ea11d2e-c216-413e-ad94-a671bded7220"
          }
        ],
        "valueCodeableConcept": {
          "coding": [
            {
              "system": "http://snomed.info/sct",
              "code": "375211000000108",
              "display": "Bowel cancer screening programme FOB test normal (finding)"
            }
          ]
        },
        "comment": "Normal. Sent following an initial single Negative result or following 2 Negative results after an initial Weak Positive",
        "specimen": {
          "reference": "urn:uuid:df7496bc-5d48-4f0f-b744-412deed49727"
        }
      }
    }
  ]
}