{
    "resourceType": "Bundle",
    "id": "67725f7e-b12c-4e99-b9ba-634202031b16",
    "meta": {
        "lastUpdated": "2021-05-31T12:49:25.030+01:00",
        "profile": [
            "https://fhir.nhs.uk/STU3/StructureDefinition/ITK-Message-Bundle-1"
        ]
    },
    "identifier": {
        "system": "https://tools.ietf.org/html/rfc4122",
        "value": "f9337545-3458-41e8-95a3-689c53a48469"
    },
    "type": "message",
    "entry": [
        {
            "fullUrl": "urn:uuid:2353121f-3d60-49a7-a0e8-1b4bb3872470",
            "resource": {
                "resourceType": "MessageHeader",
                "id": "2353121f-3d60-49a7-a0e8-1b4bb3872470",
                "meta": {
                    "profile": [
                        "https://fhir.nhs.uk/STU3/StructureDefinition/ITK-MessageHeader-2"
                    ]
                },
                "extension": [
                    {
                        "url": "https://fhir.nhs.uk/STU3/StructureDefinition/Extension-ITK-MessageHandling-2",
                        "extension": [
                            {
                                "url": "BusAckRequested",
                                "valueBoolean": true
                            },
                            {
                                "url": "InfAckRequested",
                                "valueBoolean": true
                            },
                            {
                                "url": "RecipientType",
                                "valueCoding": {
                                    "system": "https://fhir.nhs.uk/STU3/CodeSystem/ITK-RecipientType-1",
                                    "code": "FA",
                                    "display": "For Action"
                                }
                            },
                            {
                                "url": "SenderReference",
                                "valueString": "None"
                            },
                            {
                                "url": "LocalExtension",
                                "valueString": "None"
                            }
                        ]
                    }
                ],
                "event": {
                    "system": "https://fhir.nhs.uk/STU3/CodeSystem/ITK-MessageEvent-2",
                    "code": "ITK012M",
                    "display": "ITK National Pathology"
                },
                "receiver": {
                    "reference": "urn:uuid:ccf41e6c-06d7-4022-ab66-20be9801059e"
                },
                "sender": {
                    "reference": "urn:uuid:4deecb92-363d-4c6d-90e4-f408bad3e5b7"
                },
                "timestamp": "2009-11-13T15:19:00.000+00:00",
                "source": {
                    "endpoint": "lab_results_mailbox"
                },
                "responsible": {
                    "reference": "urn:uuid:4deecb92-363d-4c6d-90e4-f408bad3e5b7"
                },
                "focus": [
                    {
                        "reference": "urn:uuid:a66cf9fc-5203-4bf6-95e2-c45cf6fe9f85"
                    }
                ]
            }
        },
        {
            "fullUrl": "urn:uuid:d1d376f6-6d07-4524-9bbe-b32f865f8313",
            "resource": {
                "resourceType": "Patient",
                "id": "d1d376f6-6d07-4524-9bbe-b32f865f8313",
                "meta": {
                    "profile": [
                        "https://fhir.hl7.org.uk/STU3/StructureDefinition/CareConnect-Patient-1"
                    ]
                },
                "name": [
                    {
                        "use": "official",
                        "family": "ABLE",
                        "given": [
                            "JEREMIAS"
                        ]
                    }
                ],
                "gender": "male",
                "birthDate": "1915-12-01"
            }
        },
        {
            "fullUrl": "urn:uuid:2f859cf9-0edc-4926-b89e-096a03dd15e3",
            "resource": {
                "resourceType": "Practitioner",
                "id": "2f859cf9-0edc-4926-b89e-096a03dd15e3",
                "meta": {
                    "profile": [
                        "https://fhir.hl7.org.uk/STU3/StructureDefinition/CareConnect-Practitioner-1"
                    ]
                },
                "name": [
                    {
                        "text": "BCSP Hub Manager"
                    }
                ]
            }
        },
        {
            "fullUrl": "urn:uuid:ccf41e6c-06d7-4022-ab66-20be9801059e",
            "resource": {
                "resourceType": "Organization",
                "id": "ccf41e6c-06d7-4022-ab66-20be9801059e",
                "meta": {
                    "profile": [
                        "https://fhir.hl7.org.uk/STU3/StructureDefinition/CareConnect-Organization-1"
                    ]
                }
            }
        },
        {
            "fullUrl": "urn:uuid:7e5228f5-9284-44b6-8322-f4db9784314e",
            "resource": {
                "resourceType": "Practitioner",
                "id": "7e5228f5-9284-44b6-8322-f4db9784314e",
                "meta": {
                    "profile": [
                        "https://fhir.hl7.org.uk/STU3/StructureDefinition/CareConnect-Practitioner-1"
                    ]
                }
            }
        },
        {
            "fullUrl": "urn:uuid:4deecb92-363d-4c6d-90e4-f408bad3e5b7",
            "resource": {
                "resourceType": "Organization",
                "id": "4deecb92-363d-4c6d-90e4-f408bad3e5b7",
                "meta": {
                    "profile": [
                        "https://fhir.hl7.org.uk/STU3/StructureDefinition/CareConnect-Organization-1"
                    ]
                },
                "type": [
                    {
                        "coding": [
                            {
                                "code": "dept",
                                "display": "UNKNOWN"
                            }
                        ]
                    }
                ],
                "name": "Southern Bowel Cancer Screening Pro:gramme Hub"
            }
        },
        {
            "fullUrl": "urn:uuid:078dca20-46eb-4df5-a813-9ce05938ae49",
            "resource": {
                "resourceType": "ProcedureRequest",
                "id": "078dca20-46eb-4df5-a813-9ce05938ae49",
                "meta": {
                    "profile": [
                        "https://fhir.hl7.org.uk/STU3/StructureDefinition/CareConnect-ProcedureRequest-1"
                    ]
                },
                "status": "active",
                "intent": "order",
                "code": {
                    "coding": [
                        {
                            "system": "http://snomed.info/sct",
                            "code": "15220000",
                            "display": "Laboratory test (procedure)"
                        }
                    ]
                },
                "subject": {
                    "reference": "urn:uuid:d1d376f6-6d07-4524-9bbe-b32f865f8313"
                },
                "requester": {
                    "agent": {
                        "reference": "urn:uuid:2f859cf9-0edc-4926-b89e-096a03dd15e3"
                    },
                    "onBehalfOf": {
                        "reference": "urn:uuid:ccf41e6c-06d7-4022-ab66-20be9801059e"
                    }
                },
                "performer": {
                    "reference": "urn:uuid:7e5228f5-9284-44b6-8322-f4db9784314e"
                }
            }
        },
        {
            "fullUrl": "urn:uuid:a66cf9fc-5203-4bf6-95e2-c45cf6fe9f85",
            "resource": {
                "resourceType": "DiagnosticReport",
                "id": "a66cf9fc-5203-4bf6-95e2-c45cf6fe9f85",
                "meta": {
                    "profile": [
                        "https://fhir.hl7.org.uk/STU3/StructureDefinition/CareConnect-DiagnosticReport-1"
                    ]
                },
                "identifier": [
                    {
                        "system": "https://tools.ietf.org/html/rfc4122",
                        "value": "34/1"
                    }
                ],
                "basedOn": [
                    {
                        "reference": "urn:uuid:078dca20-46eb-4df5-a813-9ce05938ae49"
                    }
                ],
                "status": "unknown",
                "code": {
                    "coding": [
                        {
                            "system": "http://snomed.info/sct",
                            "code": "721981007",
                            "display": "Diagnostic studies report"
                        }
                    ]
                },
                "subject": {
                    "reference": "urn:uuid:d1d376f6-6d07-4524-9bbe-b32f865f8313"
                },
                "issued": "2009-11-10T11:45:00.000+00:00",
                "performer": [
                    {
                        "actor": {
                            "reference": "urn:uuid:4deecb92-363d-4c6d-90e4-f408bad3e5b7"
                        }
                    },
                    {
                        "actor": {
                            "reference": "urn:uuid:7e5228f5-9284-44b6-8322-f4db9784314e"
                        }
                    }
                ],
                "specimen": [
                    {
                        "reference": "urn:uuid:051aa5e2-9b91-49bf-a3a9-54ffc899a9a8"
                    }
                ],
                "result": [
                    {
                        "reference": "urn:uuid:4e5580cb-5bf4-462f-a873-f78d9548e879"
                    }
                ]
            }
        },
        {
            "fullUrl": "urn:uuid:051aa5e2-9b91-49bf-a3a9-54ffc899a9a8",
            "resource": {
                "resourceType": "Specimen",
                "id": "051aa5e2-9b91-49bf-a3a9-54ffc899a9a8",
                "meta": {
                    "profile": [
                        "https://fhir.hl7.org.uk/STU3/StructureDefinition/CareConnect-Specimen-1"
                    ]
                },
                "type": {
                    "coding": [
                        {
                            "system": "http://snomed.info/sct",
                            "display": "Faeces"
                        }
                    ]
                },
                "subject": {
                    "reference": "urn:uuid:d1d376f6-6d07-4524-9bbe-b32f865f8313"
                }
            }
        },
        {
            "fullUrl": "urn:uuid:4e5580cb-5bf4-462f-a873-f78d9548e879",
            "resource": {
                "resourceType": "Observation",
                "id": "4e5580cb-5bf4-462f-a873-f78d9548e879",
                "meta": {
                    "profile": [
                        "https://fhir.hl7.org.uk/STU3/StructureDefinition/CareConnect-Observation-1"
                    ]
                },
                "status": "unknown",
                "code": {
                    "coding": [
                        {
                            "system": "http://snomed.info/sct",
                            "code": "368481000000103",
                            "display": "BCS?:FOB result"
                        }
                    ]
                },
                "subject": {
                    "reference": "urn:uuid:d1d376f6-6d07-4524-9bbe-b32f865f8313"
                },
                "performer": [
                    {
                        "reference": "urn:uuid:4deecb92-363d-4c6d-90e4-f408bad3e5b7"
                    },
                    {
                        "reference": "urn:uuid:7e5228f5-9284-44b6-8322-f4db9784314e"
                    }
                ],
                "valueCodeableConcept": {
                    "coding": [
                        {
                            "system": "http://snomed.info/sct",
                            "code": "384241000000100",
                            "display": "Bowel cancer screening prog FOB tst incomplete participation (finding)"
                        }
                    ]
                },
                "specimen": {
                    "reference": "urn:uuid:051aa5e2-9b91-49bf-a3a9-54ffc899a9a8"
                }
            }
        }
    ]
}