{
    "resourceType": "Bundle",
    "id": "43f5f265-f00c-4617-a479-1bb8883607ab",
    "meta": {
        "lastUpdated": "2021-06-07T12:30:35.329+01:00",
        "profile": [ "https://fhir.nhs.uk/STU3/StructureDefinition/ITK-Message-Bundle-1" ]
    },
    "identifier": {
        "system": "https://tools.ietf.org/html/rfc4122",
        "value": "a0a4ad42-24c6-4a61-8499-0d1b4acbe085"
    },
    "type": "message",
    "entry": [ {
        "fullUrl": "urn:uuid:c7425ca3-b1dd-457e-8d01-c6a2c8452feb",
        "resource": {
            "resourceType": "MessageHeader",
            "id": "c7425ca3-b1dd-457e-8d01-c6a2c8452feb",
            "meta": {
                "profile": [ "https://fhir.nhs.uk/STU3/StructureDefinition/ITK-MessageHeader-2" ]
            },
            "extension": [ {
                "url": "https://fhir.nhs.uk/STU3/StructureDefinition/Extension-ITK-MessageHandling-2",
                "extension": [ {
                    "url": "BusAckRequested",
                    "valueBoolean": true
                }, {
                    "url": "InfAckRequested",
                    "valueBoolean": true
                }, {
                    "url": "RecipientType",
                    "valueCoding": {
                        "system": "https://fhir.nhs.uk/STU3/CodeSystem/ITK-RecipientType-1",
                        "code": "FA",
                        "display": "For Action"
                    }
                }, {
                    "url": "SenderReference",
                    "valueString": "None"
                }, {
                    "url": "LocalExtension",
                    "valueString": "None"
                } ]
            } ],
            "event": {
                "system": "https://fhir.nhs.uk/STU3/CodeSystem/ITK-MessageEvent-2",
                "code": "ITK012M",
                "display": "ITK National Pathology"
            },
            "receiver": {
                "reference": "urn:uuid:0a8325cb-a360-4a3b-9d02-99cf62168676"
            },
            "sender": {
                "reference": "urn:uuid:7de4c8d5-97d9-4f2c-a428-8f9b5dfa7d73"
            },
            "timestamp": "2009-11-13T15:19:00.000+00:00",
            "source": {
                "endpoint": "lab_results_mailbox"
            },
            "responsible": {
                "reference": "urn:uuid:7de4c8d5-97d9-4f2c-a428-8f9b5dfa7d73"
            },
            "focus": [ {
                "reference": "urn:uuid:a5744d1b-e185-4478-b9fd-83dd0bccc591"
            } ]
        }
    }, {
        "fullUrl": "urn:uuid:2e3e93d5-56df-4845-b3c2-a639fb4133b7",
        "resource": {
            "resourceType": "Patient",
            "id": "2e3e93d5-56df-4845-b3c2-a639fb4133b7",
            "meta": {
                "profile": [ "https://fhir.hl7.org.uk/STU3/StructureDefinition/CareConnect-Patient-1" ]
            },
            "identifier": [ {
                "extension": [ {
                    "url": "https://fhir.hl7.org.uk/STU3/StructureDefinition/Extension-CareConnect-NHSNumberVerificationStatus-1",
                    "valueCodeableConcept": {
                        "coding": [ {
                            "system": "https://fhir.hl7.org.uk/STU3/CodeSystem/CareConnect-NHSNumberVerificationStatus-1",
                            "code": "01",
                            "display": "Number present and verified"
                        } ]
                    }
                } ],
                "system": "https://fhir.nhs.uk/Id/nhs-number",
                "value": "8982821201"
            } ],
            "name": [ {
                "use": "official",
                "family": "GRIMSHAW",
                "given": [ "BRETT" ],
                "prefix": [ "CAPT" ]
            } ],
            "gender": "male",
            "birthDate": "1938-02-06",
            "address": [ {
                "line": [ "HIGHWOOD BUNGALOW", "EXETER", "DEVON" ],
                "postalCode": "TQ14 4QJ"
            } ]
        }
    }, {
        "fullUrl": "urn:uuid:bfcb4288-13a2-4f4f-97f5-5af300caa915",
        "resource": {
            "resourceType": "Practitioner",
            "id": "bfcb4288-13a2-4f4f-97f5-5af300caa915",
            "meta": {
                "profile": [ "https://fhir.hl7.org.uk/STU3/StructureDefinition/CareConnect-Practitioner-1" ]
            },
            "name": [ {
                "text": "BCSP Hub Manager"
            } ]
        }
    }, {
        "fullUrl": "urn:uuid:0a8325cb-a360-4a3b-9d02-99cf62168676",
        "resource": {
            "resourceType": "Organization",
            "id": "0a8325cb-a360-4a3b-9d02-99cf62168676",
            "meta": {
                "profile": [ "https://fhir.hl7.org.uk/STU3/StructureDefinition/CareConnect-Organization-1" ]
            }
        }
    }, {
        "fullUrl": "urn:uuid:5868f9aa-717c-4c0b-9bac-58d828d19fdd",
        "resource": {
            "resourceType": "Practitioner",
            "id": "5868f9aa-717c-4c0b-9bac-58d828d19fdd",
            "meta": {
                "profile": [ "https://fhir.hl7.org.uk/STU3/StructureDefinition/CareConnect-Practitioner-1" ]
            }
        }
    }, {
        "fullUrl": "urn:uuid:7de4c8d5-97d9-4f2c-a428-8f9b5dfa7d73",
        "resource": {
            "resourceType": "Organization",
            "id": "7de4c8d5-97d9-4f2c-a428-8f9b5dfa7d73",
            "meta": {
                "profile": [ "https://fhir.hl7.org.uk/STU3/StructureDefinition/CareConnect-Organization-1" ]
            },
            "type": [ {
                "coding": [ {
                    "code": "dept",
                    "display": "UNKNOWN"
                } ]
            } ],
            "name": "Southern Bowel Cancer Screening Pro:gramme Hub"
        }
    }, {
        "fullUrl": "urn:uuid:f589219f-3820-41d7-82d2-aa9194aa280d",
        "resource": {
            "resourceType": "ProcedureRequest",
            "id": "f589219f-3820-41d7-82d2-aa9194aa280d",
            "meta": {
                "profile": [ "https://fhir.hl7.org.uk/STU3/StructureDefinition/CareConnect-ProcedureRequest-1" ]
            },
            "status": "active",
            "intent": "order",
            "code": {
                "coding": [ {
                    "system": "http://snomed.info/sct",
                    "code": "15220000",
                    "display": "Laboratory test (procedure)"
                } ]
            },
            "subject": {
                "reference": "urn:uuid:2e3e93d5-56df-4845-b3c2-a639fb4133b7"
            },
            "requester": {
                "agent": {
                    "reference": "urn:uuid:bfcb4288-13a2-4f4f-97f5-5af300caa915"
                },
                "onBehalfOf": {
                    "reference": "urn:uuid:0a8325cb-a360-4a3b-9d02-99cf62168676"
                }
            },
            "performer": {
                "reference": "urn:uuid:5868f9aa-717c-4c0b-9bac-58d828d19fdd"
            }
        }
    }, {
        "fullUrl": "urn:uuid:a5744d1b-e185-4478-b9fd-83dd0bccc591",
        "resource": {
            "resourceType": "DiagnosticReport",
            "id": "a5744d1b-e185-4478-b9fd-83dd0bccc591",
            "meta": {
                "profile": [ "https://fhir.hl7.org.uk/STU3/StructureDefinition/CareConnect-DiagnosticReport-1" ]
            },
            "identifier": [ {
                "system": "https://tools.ietf.org/html/rfc4122",
                "value": "34/1"
            } ],
            "basedOn": [ {
                "reference": "urn:uuid:f589219f-3820-41d7-82d2-aa9194aa280d"
            } ],
            "status": "unknown",
            "code": {
                "coding": [ {
                    "system": "http://snomed.info/sct",
                    "code": "721981007",
                    "display": "Diagnostic studies report"
                } ]
            },
            "subject": {
                "reference": "urn:uuid:2e3e93d5-56df-4845-b3c2-a639fb4133b7"
            },
            "issued": "2009-11-10T11:45:00.000+00:00",
            "performer": [ {
                "actor": {
                    "reference": "urn:uuid:7de4c8d5-97d9-4f2c-a428-8f9b5dfa7d73"
                }
            }, {
                "actor": {
                    "reference": "urn:uuid:5868f9aa-717c-4c0b-9bac-58d828d19fdd"
                }
            } ],
            "specimen": [ {
                "reference": "urn:uuid:dd689118-21b6-4b3a-b76e-e802bdedfb6f"
            } ],
            "result": [ {
                "reference": "urn:uuid:c69a9ce4-8d08-4435-a7f6-c7614b0dface"
            } ]
        }
    }, {
        "fullUrl": "urn:uuid:dd689118-21b6-4b3a-b76e-e802bdedfb6f",
        "resource": {
            "resourceType": "Specimen",
            "id": "dd689118-21b6-4b3a-b76e-e802bdedfb6f",
            "meta": {
                "profile": [ "https://fhir.hl7.org.uk/STU3/StructureDefinition/CareConnect-Specimen-1" ]
            },
            "type": {
                "coding": [ {
                    "system": "http://snomed.info/sct",
                    "display": "Faeces"
                } ]
            },
            "subject": {
                "reference": "urn:uuid:2e3e93d5-56df-4845-b3c2-a639fb4133b7"
            }
        }
    }, {
        "fullUrl": "urn:uuid:c69a9ce4-8d08-4435-a7f6-c7614b0dface",
        "resource": {
            "resourceType": "Observation",
            "id": "c69a9ce4-8d08-4435-a7f6-c7614b0dface",
            "meta": {
                "profile": [ "https://fhir.hl7.org.uk/STU3/StructureDefinition/CareConnect-Observation-1" ]
            },
            "status": "unknown",
            "code": {
                "coding": [ {
                    "system": "http://snomed.info/sct",
                    "code": "368481000000103",
                    "display": "BCS?:FOB result"
                } ]
            },
            "subject": {
                "reference": "urn:uuid:2e3e93d5-56df-4845-b3c2-a639fb4133b7"
            },
            "performer": [ {
                "reference": "urn:uuid:7de4c8d5-97d9-4f2c-a428-8f9b5dfa7d73"
            }, {
                "reference": "urn:uuid:5868f9aa-717c-4c0b-9bac-58d828d19fdd"
            } ],
            "valueCodeableConcept": {
                "coding": [ {
                    "system": "http://snomed.info/sct",
                    "code": "375211000000108",
                    "display": "Bowel cancer screening programme FOB test normal (finding)"
                } ]
            },
            "comment": "Normal. Sent following an initial single Negative result or following 2 Negative results after an initial Weak Positive",
            "specimen": {
                "reference": "urn:uuid:dd689118-21b6-4b3a-b76e-e802bdedfb6f"
            }
        }
    } ]
}