{
    "resourceType": "Bundle",
    "id": "29b44889-9372-47fd-a3b5-f60699527b49",
    "meta": {
        "lastUpdated": "2021-06-08T10:54:05.979+01:00",
        "profile": [
            "https://fhir.nhs.uk/STU3/StructureDefinition/ITK-Message-Bundle-1"
        ]
    },
    "identifier": {
        "system": "https://tools.ietf.org/html/rfc4122",
        "value": "35a420c8-1a26-4cf8-8bf4-f930286df1b3"
    },
    "type": "message",
    "entry": [
        {
            "fullUrl": "urn:uuid:78837331-3304-4431-b519-814f4cb01055",
            "resource": {
                "resourceType": "MessageHeader",
                "id": "78837331-3304-4431-b519-814f4cb01055",
                "meta": {
                    "profile": [
                        "https://fhir.nhs.uk/STU3/StructureDefinition/ITK-MessageHeader-2"
                    ]
                },
                "extension": [
                    {
                        "url": "https://fhir.nhs.uk/STU3/StructureDefinition/Extension-ITK-MessageHandling-2",
                        "extension": [
                            {
                                "url": "BusAckRequested",
                                "valueBoolean": true
                            },
                            {
                                "url": "InfAckRequested",
                                "valueBoolean": true
                            },
                            {
                                "url": "RecipientType",
                                "valueCoding": {
                                    "system": "https://fhir.nhs.uk/STU3/CodeSystem/ITK-RecipientType-1",
                                    "code": "FA",
                                    "display": "For Action"
                                }
                            },
                            {
                                "url": "SenderReference",
                                "valueString": "None"
                            },
                            {
                                "url": "LocalExtension",
                                "valueString": "None"
                            }
                        ]
                    }
                ],
                "event": {
                    "system": "https://fhir.nhs.uk/STU3/CodeSystem/ITK-MessageEvent-2",
                    "code": "ITK012M",
                    "display": "ITK National Pathology"
                },
                "receiver": {
                    "reference": "urn:uuid:fe842343-71b8-4e62-a558-f758482cb0b6"
                },
                "sender": {
                    "reference": "urn:uuid:a71b4731-915e-491e-a388-e482014e5bb7"
                },
                "timestamp": "2009-11-13T15:19:00.000+00:00",
                "source": {
                    "endpoint": "lab_results_mailbox"
                },
                "responsible": {
                    "reference": "urn:uuid:a71b4731-915e-491e-a388-e482014e5bb7"
                },
                "focus": [
                    {
                        "reference": "urn:uuid:441b83db-efea-43b0-af8a-eb1f9269437a"
                    }
                ]
            }
        },
        {
            "fullUrl": "urn:uuid:4e5847c0-0821-4143-9790-a0ae137f5377",
            "resource": {
                "resourceType": "Patient",
                "id": "4e5847c0-0821-4143-9790-a0ae137f5377",
                "meta": {
                    "profile": [
                        "https://fhir.hl7.org.uk/STU3/StructureDefinition/CareConnect-Patient-1"
                    ]
                },
                "name": [
                    {
                        "use": "official",
                        "family": "ABLE",
                        "given": [
                            "JEREMIAS"
                        ]
                    }
                ],
                "gender": "male",
                "birthDate": "1915-12-01"
            }
        },
        {
            "fullUrl": "urn:uuid:a690e2b2-fcac-47d9-942e-804344fbc284",
            "resource": {
                "resourceType": "Practitioner",
                "id": "a690e2b2-fcac-47d9-942e-804344fbc284",
                "meta": {
                    "profile": [
                        "https://fhir.hl7.org.uk/STU3/StructureDefinition/CareConnect-Practitioner-1"
                    ]
                },
                "name": [
                    {
                        "text": "BCSP Hub Manager"
                    }
                ]
            }
        },
        {
            "fullUrl": "urn:uuid:fe842343-71b8-4e62-a558-f758482cb0b6",
            "resource": {
                "resourceType": "Organization",
                "id": "fe842343-71b8-4e62-a558-f758482cb0b6",
                "meta": {
                    "profile": [
                        "https://fhir.hl7.org.uk/STU3/StructureDefinition/CareConnect-Organization-1"
                    ]
                }
            }
        },
        {
            "fullUrl": "urn:uuid:59eb184b-a90d-4ecf-a512-31cde585027f",
            "resource": {
                "resourceType": "Practitioner",
                "id": "59eb184b-a90d-4ecf-a512-31cde585027f",
                "meta": {
                    "profile": [
                        "https://fhir.hl7.org.uk/STU3/StructureDefinition/CareConnect-Practitioner-1"
                    ]
                }
            }
        },
        {
            "fullUrl": "urn:uuid:a71b4731-915e-491e-a388-e482014e5bb7",
            "resource": {
                "resourceType": "Organization",
                "id": "a71b4731-915e-491e-a388-e482014e5bb7",
                "meta": {
                    "profile": [
                        "https://fhir.hl7.org.uk/STU3/StructureDefinition/CareConnect-Organization-1"
                    ]
                },
                "type": [
                    {
                        "coding": [
                            {
                                "code": "dept",
                                "display": "UNKNOWN"
                            }
                        ]
                    }
                ],
                "name": "Southern Bowel Cancer Screening Pro:gramme Hub"
            }
        },
        {
            "fullUrl": "urn:uuid:ca2f0a63-2834-4dd1-b040-152cad3b8252",
            "resource": {
                "resourceType": "ProcedureRequest",
                "id": "ca2f0a63-2834-4dd1-b040-152cad3b8252",
                "meta": {
                    "profile": [
                        "https://fhir.hl7.org.uk/STU3/StructureDefinition/CareConnect-ProcedureRequest-1"
                    ]
                },
                "status": "active",
                "intent": "order",
                "code": {
                    "coding": [
                        {
                            "system": "http://snomed.info/sct",
                            "code": "15220000",
                            "display": "Laboratory test (procedure)"
                        }
                    ]
                },
                "subject": {
                    "reference": "urn:uuid:4e5847c0-0821-4143-9790-a0ae137f5377"
                },
                "requester": {
                    "agent": {
                        "reference": "urn:uuid:a690e2b2-fcac-47d9-942e-804344fbc284"
                    },
                    "onBehalfOf": {
                        "reference": "urn:uuid:fe842343-71b8-4e62-a558-f758482cb0b6"
                    }
                },
                "performer": {
                    "reference": "urn:uuid:59eb184b-a90d-4ecf-a512-31cde585027f"
                }
            }
        },
        {
            "fullUrl": "urn:uuid:441b83db-efea-43b0-af8a-eb1f9269437a",
            "resource": {
                "resourceType": "DiagnosticReport",
                "id": "441b83db-efea-43b0-af8a-eb1f9269437a",
                "meta": {
                    "profile": [
                        "https://fhir.hl7.org.uk/STU3/StructureDefinition/CareConnect-DiagnosticReport-1"
                    ]
                },
                "identifier": [
                    {
                        "system": "https://tools.ietf.org/html/rfc4122",
                        "value": "34/1"
                    }
                ],
                "basedOn": [
                    {
                        "reference": "urn:uuid:ca2f0a63-2834-4dd1-b040-152cad3b8252"
                    }
                ],
                "status": "unknown",
                "code": {
                    "coding": [
                        {
                            "system": "http://snomed.info/sct",
                            "code": "721981007",
                            "display": "Diagnostic studies report"
                        }
                    ]
                },
                "subject": {
                    "reference": "urn:uuid:4e5847c0-0821-4143-9790-a0ae137f5377"
                },
                "issued": "2009-11-10T11:45:00.000+00:00",
                "performer": [
                    {
                        "actor": {
                            "reference": "urn:uuid:a71b4731-915e-491e-a388-e482014e5bb7"
                        }
                    },
                    {
                        "actor": {
                            "reference": "urn:uuid:59eb184b-a90d-4ecf-a512-31cde585027f"
                        }
                    }
                ],
                "specimen": [
                    {
                        "reference": "urn:uuid:e4ddcea5-ac0a-40b8-898c-6dda885bbd9a"
                    }
                ],
                "result": [
                    {
                        "reference": "urn:uuid:7b480d00-4b94-4902-a38f-ad1c3ab5d872"
                    }
                ]
            }
        },
        {
            "fullUrl": "urn:uuid:e4ddcea5-ac0a-40b8-898c-6dda885bbd9a",
            "resource": {
                "resourceType": "Specimen",
                "id": "e4ddcea5-ac0a-40b8-898c-6dda885bbd9a",
                "meta": {
                    "profile": [
                        "https://fhir.hl7.org.uk/STU3/StructureDefinition/CareConnect-Specimen-1"
                    ]
                },
                "type": {
                    "coding": [
                        {
                            "display": "Faeces"
                        }
                    ]
                },
                "subject": {
                    "reference": "urn:uuid:4e5847c0-0821-4143-9790-a0ae137f5377"
                }
            }
        },
        {
            "fullUrl": "urn:uuid:7b480d00-4b94-4902-a38f-ad1c3ab5d872",
            "resource": {
                "resourceType": "Observation",
                "id": "7b480d00-4b94-4902-a38f-ad1c3ab5d872",
                "meta": {
                    "profile": [
                        "https://fhir.hl7.org.uk/STU3/StructureDefinition/CareConnect-Observation-1"
                    ]
                },
                "status": "unknown",
                "code": {
                    "coding": [
                        {
                            "system": "http://snomed.info/sct",
                            "code": "368481000000103",
                            "display": "BCS?:FOB result"
                        }
                    ]
                },
                "subject": {
                    "reference": "urn:uuid:4e5847c0-0821-4143-9790-a0ae137f5377"
                },
                "performer": [
                    {
                        "reference": "urn:uuid:a71b4731-915e-491e-a388-e482014e5bb7"
                    },
                    {
                        "reference": "urn:uuid:59eb184b-a90d-4ecf-a512-31cde585027f"
                    }
                ],
                "valueCodeableConcept": {
                    "coding": [
                        {
                            "system": "http://snomed.info/sct",
                            "code": "384241000000100",
                            "display": "Bowel cancer screening prog FOB tst incomplete participation (finding)"
                        }
                    ]
                },
                "specimen": {
                    "reference": "urn:uuid:e4ddcea5-ac0a-40b8-898c-6dda885bbd9a"
                }
            }
        }
    ]
}