{
    "resourceType": "Bundle",
    "id": "581b2ba4-2d1e-43de-a18a-57429d8b06eb",
    "meta": {
        "lastUpdated": "2021-04-22T14:13:24.694+02:00",
        "profile": [
            "https://fhir.nhs.uk/STU3/StructureDefinition/ITK-Message-Bundle-1"
        ]
    },
    "identifier": {
        "system": "https://tools.ietf.org/html/rfc4122",
        "value": "0f2eefb8-937f-4113-bb88-19f99c0a4cb2"
    },
    "type": "message",
    "entry": [
        {
            "fullUrl": "urn:uuid:81799c4a-f02e-4fc7-a425-0450ac168397",
            "resource": {
                "resourceType": "MessageHeader",
                "id": "81799c4a-f02e-4fc7-a425-0450ac168397",
                "meta": {
                    "profile": [
                        "https://fhir.nhs.uk/STU3/StructureDefinition/ITK-MessageHeader-2"
                    ]
                },
                "extension": [
                    {
                        "url": "https://fhir.nhs.uk/STU3/StructureDefinition/Extension-ITK-MessageHandling-2",
                        "extension": [
                            {
                                "url": "BusAckRequested",
                                "valueBoolean": true
                            },
                            {
                                "url": "InfAckRequested",
                                "valueBoolean": true
                            },
                            {
                                "url": "RecipientType",
                                "valueCoding": {
                                    "system": "https://fhir.nhs.uk/STU3/CodeSystem/ITK-RecipientType-1",
                                    "code": "FA",
                                    "display": "For Action"
                                }
                            },
                            {
                                "url": "SenderReference",
                                "valueString": "None"
                            },
                            {
                                "url": "LocalExtension",
                                "valueString": "None"
                            }
                        ]
                    }
                ],
                "event": {
                    "system": "https://fhir.nhs.uk/STU3/CodeSystem/ITK-MessageEvent-2",
                    "code": "ITK012M",
                    "display": "ITK National Pathology"
                },
                "receiver": {
                    "reference": "urn:uuid:67a4ec68-1acb-41e2-b98d-182ce78d8c72"
                },
                "sender": {
                    "reference": "urn:uuid:85aa16b7-dfb8-4fdf-878a-b6841a7bd872"
                },
                "source": {
                    "endpoint": "lab_results_mailbox"
                },
                "responsible": {
                    "reference": "urn:uuid:85aa16b7-dfb8-4fdf-878a-b6841a7bd872"
                },
                "focus": [
                    {
                        "reference": "urn:uuid:b41f9b04-ea6d-4592-917a-69225d0df7c5"
                    }
                ]
            }
        },
        {
            "fullUrl": "urn:uuid:d3c3b09f-fe75-4fca-b9cb-11becda935e9",
            "resource": {
                "resourceType": "Patient",
                "id": "d3c3b09f-fe75-4fca-b9cb-11becda935e9",
                "meta": {
                    "profile": [
                        "https://fhir.hl7.org.uk/STU3/StructureDefinition/CareConnect-Patient-1"
                    ]
                },
                "name": [
                    {
                        "family": "ABLE",
                        "given": [
                            "JEREMIAS"
                        ]
                    }
                ],
                "gender": "male",
                "birthDate": "1915-12-01"
            }
        },
        {
            "fullUrl": "urn:uuid:64983e74-ca9b-4803-b6ae-0f355046018b",
            "resource": {
                "resourceType": "Practitioner",
                "id": "64983e74-ca9b-4803-b6ae-0f355046018b",
                "meta": {
                    "profile": [
                        "https://fhir.hl7.org.uk/STU3/StructureDefinition/CareConnect-Practitioner-1"
                    ]
                },
                "name": [
                    {
                        "text": "BCSP Hub Manager"
                    }
                ]
            }
        },
        {
            "fullUrl": "urn:uuid:67a4ec68-1acb-41e2-b98d-182ce78d8c72",
            "resource": {
                "resourceType": "Organization",
                "id": "67a4ec68-1acb-41e2-b98d-182ce78d8c72",
                "meta": {
                    "profile": [
                        "https://fhir.hl7.org.uk/STU3/StructureDefinition/CareConnect-Organization-1"
                    ]
                }
            }
        },
        {
            "fullUrl": "urn:uuid:7d2a0c38-017e-4884-acbd-f90ed0ea1d6f",
            "resource": {
                "resourceType": "Practitioner",
                "id": "7d2a0c38-017e-4884-acbd-f90ed0ea1d6f",
                "meta": {
                    "profile": [
                        "https://fhir.hl7.org.uk/STU3/StructureDefinition/CareConnect-Practitioner-1"
                    ]
                }
            }
        },
        {
            "fullUrl": "urn:uuid:85aa16b7-dfb8-4fdf-878a-b6841a7bd872",
            "resource": {
                "resourceType": "Organization",
                "id": "85aa16b7-dfb8-4fdf-878a-b6841a7bd872",
                "meta": {
                    "profile": [
                        "https://fhir.hl7.org.uk/STU3/StructureDefinition/CareConnect-Organization-1"
                    ]
                },
                "type": [
                    {
                        "coding": [
                            {
                                "code": "dept",
                                "display": "UNKNOWN"
                            }
                        ]
                    }
                ],
                "name": "Southern Bowel Cancer Screening Pro:gramme Hub"
            }
        },
        {
            "fullUrl": "urn:uuid:0e68d77e-f614-4c4b-b855-bcf4f42f81fc",
            "resource": {
                "resourceType": "ProcedureRequest",
                "id": "0e68d77e-f614-4c4b-b855-bcf4f42f81fc",
                "meta": {
                    "profile": [
                        "https://fhir.hl7.org.uk/STU3/StructureDefinition/CareConnect-ProcedureRequest-1"
                    ]
                },
                "intent": "order",
                "code": {
                    "text": "unknown"
                },
                "subject": {
                    "reference": "urn:uuid:d3c3b09f-fe75-4fca-b9cb-11becda935e9"
                },
                "requester": {
                    "agent": {
                        "reference": "urn:uuid:64983e74-ca9b-4803-b6ae-0f355046018b"
                    },
                    "onBehalfOf": {
                        "reference": "urn:uuid:67a4ec68-1acb-41e2-b98d-182ce78d8c72"
                    }
                },
                "performer": {
                    "reference": "urn:uuid:7d2a0c38-017e-4884-acbd-f90ed0ea1d6f"
                }
            }
        },
        {
            "fullUrl": "urn:uuid:b41f9b04-ea6d-4592-917a-69225d0df7c5",
            "resource": {
                "resourceType": "DiagnosticReport",
                "id": "b41f9b04-ea6d-4592-917a-69225d0df7c5",
                "meta": {
                    "profile": [
                        "https://fhir.hl7.org.uk/STU3/StructureDefinition/CareConnect-DiagnosticReport-1"
                    ]
                },
                "identifier": [
                    {
                        "value": "34/1"
                    }
                ],
                "basedOn": [
                    {
                        "reference": "urn:uuid:0e68d77e-f614-4c4b-b855-bcf4f42f81fc"
                    }
                ],
                "status": "unknown",
                "code": {
                    "coding": [
                        {
                            "system": "http://snomed.info/sct",
                            "code": "721981007",
                            "display": "Diagnostic studies report"
                        }
                    ]
                },
                "subject": {
                    "reference": "urn:uuid:d3c3b09f-fe75-4fca-b9cb-11becda935e9"
                },
                "issued": "2009-11-10T12:45:00.000+01:00",
                "performer": [
                    {
                        "actor": {
                            "reference": "urn:uuid:85aa16b7-dfb8-4fdf-878a-b6841a7bd872"
                        }
                    },
                    {
                        "actor": {
                            "reference": "urn:uuid:7d2a0c38-017e-4884-acbd-f90ed0ea1d6f"
                        }
                    }
                ],
                "specimen": [
                    {
                        "reference": "urn:uuid:8c433224-9f2c-4100-a02f-b8407536d8f3"
                    }
                ],
                "result": [
                    {
                        "reference": "urn:uuid:dd346b79-aa48-40f5-8b56-c6e6d7ec16ee"
                    }
                ]
            }
        },
        {
            "fullUrl": "urn:uuid:8c433224-9f2c-4100-a02f-b8407536d8f3",
            "resource": {
                "resourceType": "Specimen",
                "id": "8c433224-9f2c-4100-a02f-b8407536d8f3",
                "meta": {
                    "profile": [
                        "https://fhir.hl7.org.uk/STU3/StructureDefinition/CareConnect-Specimen-1"
                    ]
                },
                "type": {
                    "coding": [
                        {
                            "system": "http://snomed.info/sct",
                            "display": "Faeces"
                        }
                    ]
                },
                "subject": {
                    "reference": "urn:uuid:d3c3b09f-fe75-4fca-b9cb-11becda935e9"
                }
            }
        },
        {
            "fullUrl": "urn:uuid:dd346b79-aa48-40f5-8b56-c6e6d7ec16ee",
            "resource": {
                "resourceType": "Observation",
                "id": "dd346b79-aa48-40f5-8b56-c6e6d7ec16ee",
                "meta": {
                    "profile": [
                        "https://fhir.hl7.org.uk/STU3/StructureDefinition/CareConnect-Observation-1"
                    ]
                },
                "status": "unknown",
                "code": {
                    "coding": [
                        {
                            "system": "http://snomed.info/sct",
                            "code": "368481000000103",
                            "display": "BCS?:FOB result"
                        }
                    ]
                },
                "subject": {
                    "reference": "urn:uuid:d3c3b09f-fe75-4fca-b9cb-11becda935e9"
                },
                "performer": [
                    {
                        "reference": "urn:uuid:85aa16b7-dfb8-4fdf-878a-b6841a7bd872"
                    },
                    {
                        "reference": "urn:uuid:7d2a0c38-017e-4884-acbd-f90ed0ea1d6f"
                    }
                ],
                "valueCodeableConcept": {
                    "coding": [
                        {
                            "system": "http://snomed.info/sct",
                            "code": "384241000000100",
                            "display": "Bowel cancer screening prog FOB tst incomplete participation (finding)"
                        }
                    ]
                },
                "specimen": {
                    "reference": "urn:uuid:8c433224-9f2c-4100-a02f-b8407536d8f3"
                }
            }
        }
    ]
}