{
    "resourceType": "Bundle",
    "id": "67e42887-c0d1-4bd4-b8a2-78f28c8af18e",
    "meta": {
        "lastUpdated": "2021-06-08T10:53:29.486+01:00",
        "profile": [
            "https://fhir.nhs.uk/STU3/StructureDefinition/ITK-Message-Bundle-1"
        ]
    },
    "identifier": {
        "system": "https://tools.ietf.org/html/rfc4122",
        "value": "2bd4a23f-db19-4d87-abdd-00ba4227c84d"
    },
    "type": "message",
    "entry": [
        {
            "fullUrl": "urn:uuid:9cff3349-89f3-4613-bd79-c31e0a3a8d52",
            "resource": {
                "resourceType": "MessageHeader",
                "id": "9cff3349-89f3-4613-bd79-c31e0a3a8d52",
                "meta": {
                    "profile": [
                        "https://fhir.nhs.uk/STU3/StructureDefinition/ITK-MessageHeader-2"
                    ]
                },
                "extension": [
                    {
                        "url": "https://fhir.nhs.uk/STU3/StructureDefinition/Extension-ITK-MessageHandling-2",
                        "extension": [
                            {
                                "url": "BusAckRequested",
                                "valueBoolean": true
                            },
                            {
                                "url": "InfAckRequested",
                                "valueBoolean": true
                            },
                            {
                                "url": "RecipientType",
                                "valueCoding": {
                                    "system": "https://fhir.nhs.uk/STU3/CodeSystem/ITK-RecipientType-1",
                                    "code": "FA",
                                    "display": "For Action"
                                }
                            },
                            {
                                "url": "SenderReference",
                                "valueString": "None"
                            },
                            {
                                "url": "LocalExtension",
                                "valueString": "None"
                            }
                        ]
                    }
                ],
                "event": {
                    "system": "https://fhir.nhs.uk/STU3/CodeSystem/ITK-MessageEvent-2",
                    "code": "ITK012M",
                    "display": "ITK National Pathology"
                },
                "receiver": {
                    "reference": "urn:uuid:c23260fc-cfbf-43fb-b649-76ef00118820"
                },
                "sender": {
                    "reference": "urn:uuid:000723f9-27ed-4462-8ba6-893a0f152588"
                },
                "timestamp": "2009-11-13T15:19:00.000+00:00",
                "source": {
                    "endpoint": "lab_results_mailbox"
                },
                "responsible": {
                    "reference": "urn:uuid:000723f9-27ed-4462-8ba6-893a0f152588"
                },
                "focus": [
                    {
                        "reference": "urn:uuid:ef59a4a0-7109-426b-bfa1-c5cf1522ed0c"
                    }
                ]
            }
        },
        {
            "fullUrl": "urn:uuid:04b1364e-7afc-4bce-a2d7-b700e374bd8c",
            "resource": {
                "resourceType": "Patient",
                "id": "04b1364e-7afc-4bce-a2d7-b700e374bd8c",
                "meta": {
                    "profile": [
                        "https://fhir.hl7.org.uk/STU3/StructureDefinition/CareConnect-Patient-1"
                    ]
                },
                "identifier": [
                    {
                        "extension": [
                            {
                                "url": "https://fhir.hl7.org.uk/STU3/StructureDefinition/Extension-CareConnect-NHSNumberVerificationStatus-1",
                                "valueCodeableConcept": {
                                    "coding": [
                                        {
                                            "system": "https://fhir.hl7.org.uk/STU3/CodeSystem/CareConnect-NHSNumberVerificationStatus-1",
                                            "code": "01",
                                            "display": "Number present and verified"
                                        }
                                    ]
                                }
                            }
                        ],
                        "system": "https://fhir.nhs.uk/Id/nhs-number",
                        "value": "8982821201"
                    }
                ],
                "name": [
                    {
                        "use": "official",
                        "family": "GRIMSHAW",
                        "given": [
                            "BRETT"
                        ],
                        "prefix": [
                            "CAPT"
                        ]
                    }
                ],
                "gender": "male",
                "birthDate": "1938-02-06",
                "address": [
                    {
                        "line": [
                            "HIGHWOOD BUNGALOW",
                            "EXETER",
                            "DEVON"
                        ],
                        "postalCode": "TQ14 4QJ"
                    }
                ]
            }
        },
        {
            "fullUrl": "urn:uuid:8a9091aa-630a-43a0-878c-614e69305950",
            "resource": {
                "resourceType": "Practitioner",
                "id": "8a9091aa-630a-43a0-878c-614e69305950",
                "meta": {
                    "profile": [
                        "https://fhir.hl7.org.uk/STU3/StructureDefinition/CareConnect-Practitioner-1"
                    ]
                },
                "name": [
                    {
                        "text": "BCSP Hub Manager"
                    }
                ]
            }
        },
        {
            "fullUrl": "urn:uuid:c23260fc-cfbf-43fb-b649-76ef00118820",
            "resource": {
                "resourceType": "Organization",
                "id": "c23260fc-cfbf-43fb-b649-76ef00118820",
                "meta": {
                    "profile": [
                        "https://fhir.hl7.org.uk/STU3/StructureDefinition/CareConnect-Organization-1"
                    ]
                }
            }
        },
        {
            "fullUrl": "urn:uuid:70905944-5888-4af8-8eae-4c0ae280132c",
            "resource": {
                "resourceType": "Practitioner",
                "id": "70905944-5888-4af8-8eae-4c0ae280132c",
                "meta": {
                    "profile": [
                        "https://fhir.hl7.org.uk/STU3/StructureDefinition/CareConnect-Practitioner-1"
                    ]
                }
            }
        },
        {
            "fullUrl": "urn:uuid:000723f9-27ed-4462-8ba6-893a0f152588",
            "resource": {
                "resourceType": "Organization",
                "id": "000723f9-27ed-4462-8ba6-893a0f152588",
                "meta": {
                    "profile": [
                        "https://fhir.hl7.org.uk/STU3/StructureDefinition/CareConnect-Organization-1"
                    ]
                },
                "type": [
                    {
                        "coding": [
                            {
                                "code": "dept",
                                "display": "UNKNOWN"
                            }
                        ]
                    }
                ],
                "name": "Southern Bowel Cancer Screening Pro:gramme Hub"
            }
        },
        {
            "fullUrl": "urn:uuid:c2e45448-f82f-45a3-8603-0103544d9ef4",
            "resource": {
                "resourceType": "ProcedureRequest",
                "id": "c2e45448-f82f-45a3-8603-0103544d9ef4",
                "meta": {
                    "profile": [
                        "https://fhir.hl7.org.uk/STU3/StructureDefinition/CareConnect-ProcedureRequest-1"
                    ]
                },
                "status": "active",
                "intent": "order",
                "code": {
                    "coding": [
                        {
                            "system": "http://snomed.info/sct",
                            "code": "15220000",
                            "display": "Laboratory test (procedure)"
                        }
                    ]
                },
                "subject": {
                    "reference": "urn:uuid:04b1364e-7afc-4bce-a2d7-b700e374bd8c"
                },
                "requester": {
                    "agent": {
                        "reference": "urn:uuid:8a9091aa-630a-43a0-878c-614e69305950"
                    },
                    "onBehalfOf": {
                        "reference": "urn:uuid:c23260fc-cfbf-43fb-b649-76ef00118820"
                    }
                },
                "performer": {
                    "reference": "urn:uuid:70905944-5888-4af8-8eae-4c0ae280132c"
                }
            }
        },
        {
            "fullUrl": "urn:uuid:ef59a4a0-7109-426b-bfa1-c5cf1522ed0c",
            "resource": {
                "resourceType": "DiagnosticReport",
                "id": "ef59a4a0-7109-426b-bfa1-c5cf1522ed0c",
                "meta": {
                    "profile": [
                        "https://fhir.hl7.org.uk/STU3/StructureDefinition/CareConnect-DiagnosticReport-1"
                    ]
                },
                "identifier": [
                    {
                        "system": "https://tools.ietf.org/html/rfc4122",
                        "value": "34/1"
                    }
                ],
                "basedOn": [
                    {
                        "reference": "urn:uuid:c2e45448-f82f-45a3-8603-0103544d9ef4"
                    }
                ],
                "status": "unknown",
                "code": {
                    "coding": [
                        {
                            "system": "http://snomed.info/sct",
                            "code": "721981007",
                            "display": "Diagnostic studies report"
                        }
                    ]
                },
                "subject": {
                    "reference": "urn:uuid:04b1364e-7afc-4bce-a2d7-b700e374bd8c"
                },
                "issued": "2009-11-10T11:45:00.000+00:00",
                "performer": [
                    {
                        "actor": {
                            "reference": "urn:uuid:000723f9-27ed-4462-8ba6-893a0f152588"
                        }
                    },
                    {
                        "actor": {
                            "reference": "urn:uuid:70905944-5888-4af8-8eae-4c0ae280132c"
                        }
                    }
                ],
                "specimen": [
                    {
                        "reference": "urn:uuid:ea225e00-074e-4685-b3f2-9acc21e74a36"
                    }
                ],
                "result": [
                    {
                        "reference": "urn:uuid:9e59ebd0-ef8f-4759-a90e-16fce6d6e068"
                    }
                ]
            }
        },
        {
            "fullUrl": "urn:uuid:ea225e00-074e-4685-b3f2-9acc21e74a36",
            "resource": {
                "resourceType": "Specimen",
                "id": "ea225e00-074e-4685-b3f2-9acc21e74a36",
                "meta": {
                    "profile": [
                        "https://fhir.hl7.org.uk/STU3/StructureDefinition/CareConnect-Specimen-1"
                    ]
                },
                "type": {
                    "coding": [
                        {
                            "display": "Faeces"
                        }
                    ]
                },
                "subject": {
                    "reference": "urn:uuid:04b1364e-7afc-4bce-a2d7-b700e374bd8c"
                }
            }
        },
        {
            "fullUrl": "urn:uuid:9e59ebd0-ef8f-4759-a90e-16fce6d6e068",
            "resource": {
                "resourceType": "Observation",
                "id": "9e59ebd0-ef8f-4759-a90e-16fce6d6e068",
                "meta": {
                    "profile": [
                        "https://fhir.hl7.org.uk/STU3/StructureDefinition/CareConnect-Observation-1"
                    ]
                },
                "status": "unknown",
                "code": {
                    "coding": [
                        {
                            "system": "http://snomed.info/sct",
                            "code": "368481000000103",
                            "display": "BCS:FOB result"
                        }
                    ]
                },
                "subject": {
                    "reference": "urn:uuid:04b1364e-7afc-4bce-a2d7-b700e374bd8c"
                },
                "performer": [
                    {
                        "reference": "urn:uuid:000723f9-27ed-4462-8ba6-893a0f152588"
                    },
                    {
                        "reference": "urn:uuid:70905944-5888-4af8-8eae-4c0ae280132c"
                    }
                ],
                "valueCodeableConcept": {
                    "coding": [
                        {
                            "system": "http://snomed.info/sct",
                            "code": "375211000000108",
                            "display": "Bowel cancer screening programme FOB test normal (finding)"
                        }
                    ]
                },
                "comment": "Normal. Sent following an initial single Negative result or following 2 Negative results after an initial Weak Positive",
                "specimen": {
                    "reference": "urn:uuid:ea225e00-074e-4685-b3f2-9acc21e74a36"
                }
            }
        }
    ]
}