{
    "resourceType": "Bundle",
    "id": "3856d89b-e3e3-4a08-9e7a-5d7a18a545a5",
    "meta": {
        "lastUpdated": "2021-04-22T14:12:27.733+02:00",
        "profile": [
            "https://fhir.nhs.uk/STU3/StructureDefinition/ITK-Message-Bundle-1"
        ]
    },
    "identifier": {
        "system": "https://tools.ietf.org/html/rfc4122",
        "value": "e0838a85-f8b1-41d5-a2e1-12a9456dd472"
    },
    "type": "message",
    "entry": [
        {
            "fullUrl": "urn:uuid:40ee8ce2-0ebe-4709-9794-74e94a7d7ac4",
            "resource": {
                "resourceType": "MessageHeader",
                "id": "40ee8ce2-0ebe-4709-9794-74e94a7d7ac4",
                "meta": {
                    "profile": [
                        "https://fhir.nhs.uk/STU3/StructureDefinition/ITK-MessageHeader-2"
                    ]
                },
                "extension": [
                    {
                        "url": "https://fhir.nhs.uk/STU3/StructureDefinition/Extension-ITK-MessageHandling-2",
                        "extension": [
                            {
                                "url": "BusAckRequested",
                                "valueBoolean": true
                            },
                            {
                                "url": "InfAckRequested",
                                "valueBoolean": true
                            },
                            {
                                "url": "RecipientType",
                                "valueCoding": {
                                    "system": "https://fhir.nhs.uk/STU3/CodeSystem/ITK-RecipientType-1",
                                    "code": "FA",
                                    "display": "For Action"
                                }
                            },
                            {
                                "url": "SenderReference",
                                "valueString": "None"
                            },
                            {
                                "url": "LocalExtension",
                                "valueString": "None"
                            }
                        ]
                    }
                ],
                "event": {
                    "system": "https://fhir.nhs.uk/STU3/CodeSystem/ITK-MessageEvent-2",
                    "code": "ITK012M",
                    "display": "ITK National Pathology"
                },
                "receiver": {
                    "reference": "urn:uuid:6cabb5dd-95ec-4acd-9c2d-acef2844da00"
                },
                "sender": {
                    "reference": "urn:uuid:a9a150d1-2d23-451d-bda6-d3d16fc89d15"
                },
                "timestamp": "2010-03-01T18:51:00.000+00:00",
                "source": {
                    "endpoint": "lab_results_mailbox"
                },
                "responsible": {
                    "reference": "urn:uuid:a9a150d1-2d23-451d-bda6-d3d16fc89d15"
                },
                "focus": [
                    {
                        "reference": "urn:uuid:7c376b88-36c6-4108-984b-38e1efa75b2a"
                    }
                ]
            }
        },
        {
            "fullUrl": "urn:uuid:aae6b9a6-92c8-484a-bf22-4698b6284ee0",
            "resource": {
                "resourceType": "Patient",
                "id": "aae6b9a6-92c8-484a-bf22-4698b6284ee0",
                "meta": {
                    "profile": [
                        "https://fhir.hl7.org.uk/STU3/StructureDefinition/CareConnect-Patient-1"
                    ]
                },
                "name": [
                    {
                        "family": "ABLE",
                        "given": [
                            "JEREMIAS"
                        ]
                    }
                ],
                "gender": "male",
                "birthDate": "1915-12-01"
            }
        },
        {
            "fullUrl": "urn:uuid:7c527974-e87e-4310-9279-139dcda7c452",
            "resource": {
                "resourceType": "Practitioner",
                "id": "7c527974-e87e-4310-9279-139dcda7c452",
                "meta": {
                    "profile": [
                        "https://fhir.hl7.org.uk/STU3/StructureDefinition/CareConnect-Practitioner-1"
                    ]
                },
                "name": [
                    {
                        "text": "BCSP Hub Manager"
                    }
                ]
            }
        },
        {
            "fullUrl": "urn:uuid:6cabb5dd-95ec-4acd-9c2d-acef2844da00",
            "resource": {
                "resourceType": "Organization",
                "id": "6cabb5dd-95ec-4acd-9c2d-acef2844da00",
                "meta": {
                    "profile": [
                        "https://fhir.hl7.org.uk/STU3/StructureDefinition/CareConnect-Organization-1"
                    ]
                }
            }
        },
        {
            "fullUrl": "urn:uuid:d91dbc55-e0f4-4078-b2af-2448c966047c",
            "resource": {
                "resourceType": "Practitioner",
                "id": "d91dbc55-e0f4-4078-b2af-2448c966047c",
                "meta": {
                    "profile": [
                        "https://fhir.hl7.org.uk/STU3/StructureDefinition/CareConnect-Practitioner-1"
                    ]
                }
            }
        },
        {
            "fullUrl": "urn:uuid:a9a150d1-2d23-451d-bda6-d3d16fc89d15",
            "resource": {
                "resourceType": "Organization",
                "id": "a9a150d1-2d23-451d-bda6-d3d16fc89d15",
                "meta": {
                    "profile": [
                        "https://fhir.hl7.org.uk/STU3/StructureDefinition/CareConnect-Organization-1"
                    ]
                },
                "type": [
                    {
                        "coding": [
                            {
                                "code": "dept",
                                "display": "UNKNOWN"
                            }
                        ]
                    }
                ],
                "name": "Southern Bowel Cancer Screening Pro:gramme Hub"
            }
        },
        {
            "fullUrl": "urn:uuid:20ba71a3-0de4-4735-b034-11e8527b09d8",
            "resource": {
                "resourceType": "ProcedureRequest",
                "id": "20ba71a3-0de4-4735-b034-11e8527b09d8",
                "meta": {
                    "profile": [
                        "https://fhir.hl7.org.uk/STU3/StructureDefinition/CareConnect-ProcedureRequest-1"
                    ]
                },
                "intent": "order",
                "code": {
                    "text": "unknown"
                },
                "subject": {
                    "reference": "urn:uuid:aae6b9a6-92c8-484a-bf22-4698b6284ee0"
                },
                "requester": {
                    "agent": {
                        "reference": "urn:uuid:7c527974-e87e-4310-9279-139dcda7c452"
                    },
                    "onBehalfOf": {
                        "reference": "urn:uuid:6cabb5dd-95ec-4acd-9c2d-acef2844da00"
                    }
                },
                "performer": {
                    "reference": "urn:uuid:d91dbc55-e0f4-4078-b2af-2448c966047c"
                }
            }
        },
        {
            "fullUrl": "urn:uuid:7c376b88-36c6-4108-984b-38e1efa75b2a",
            "resource": {
                "resourceType": "DiagnosticReport",
                "id": "7c376b88-36c6-4108-984b-38e1efa75b2a",
                "meta": {
                    "profile": [
                        "https://fhir.hl7.org.uk/STU3/StructureDefinition/CareConnect-DiagnosticReport-1"
                    ]
                },
                "identifier": [
                    {
                        "system": "https://tools.ietf.org/html/rfc4122",
                        "value": "34/1"
                    }
                ],
                "basedOn": [
                    {
                        "reference": "urn:uuid:20ba71a3-0de4-4735-b034-11e8527b09d8"
                    }
                ],
                "status": "unknown",
                "code": {
                    "coding": [
                        {
                            "system": "http://snomed.info/sct",
                            "code": "721981007",
                            "display": "Diagnostic studies report"
                        }
                    ]
                },
                "subject": {
                    "reference": "urn:uuid:aae6b9a6-92c8-484a-bf22-4698b6284ee0"
                },
                "issued": "2009-11-10T12:45:00.000+01:00",
                "performer": [
                    {
                        "actor": {
                            "reference": "urn:uuid:a9a150d1-2d23-451d-bda6-d3d16fc89d15"
                        }
                    },
                    {
                        "actor": {
                            "reference": "urn:uuid:d91dbc55-e0f4-4078-b2af-2448c966047c"
                        }
                    }
                ],
                "specimen": [
                    {
                        "reference": "urn:uuid:290560ff-8522-46e7-b5f1-d066319fce2d"
                    }
                ],
                "result": [
                    {
                        "reference": "urn:uuid:67ae8666-3786-4a08-91b0-217f26c3a9f3"
                    }
                ]
            }
        },
        {
            "fullUrl": "urn:uuid:290560ff-8522-46e7-b5f1-d066319fce2d",
            "resource": {
                "resourceType": "Specimen",
                "id": "290560ff-8522-46e7-b5f1-d066319fce2d",
                "meta": {
                    "profile": [
                        "https://fhir.hl7.org.uk/STU3/StructureDefinition/CareConnect-Specimen-1"
                    ]
                },
                "type": {
                    "coding": [
                        {
                            "system": "http://snomed.info/sct",
                            "display": "Faeces"
                        }
                    ]
                },
                "subject": {
                    "reference": "urn:uuid:aae6b9a6-92c8-484a-bf22-4698b6284ee0"
                }
            }
        },
        {
            "fullUrl": "urn:uuid:67ae8666-3786-4a08-91b0-217f26c3a9f3",
            "resource": {
                "resourceType": "Observation",
                "id": "67ae8666-3786-4a08-91b0-217f26c3a9f3",
                "meta": {
                    "profile": [
                        "https://fhir.hl7.org.uk/STU3/StructureDefinition/CareConnect-Observation-1"
                    ]
                },
                "status": "unknown",
                "code": {
                    "coding": [
                        {
                            "system": "http://snomed.info/sct",
                            "code": "884521000000106",
                            "display": "BCSP bowel scope screen test"
                        }
                    ]
                },
                "subject": {
                    "reference": "urn:uuid:aae6b9a6-92c8-484a-bf22-4698b6284ee0"
                },
                "performer": [
                    {
                        "reference": "urn:uuid:a9a150d1-2d23-451d-bda6-d3d16fc89d15"
                    },
                    {
                        "reference": "urn:uuid:d91dbc55-e0f4-4078-b2af-2448c966047c"
                    }
                ],
                "valueCodeableConcept": {
                    "coding": [
                        {
                            "system": "http://snomed.info/sct",
                            "code": "884541000000104",
                            "display": "Bowel scope (flexi-sig) screen?: normal - no further action"
                        }
                    ]
                },
                "specimen": {
                    "reference": "urn:uuid:290560ff-8522-46e7-b5f1-d066319fce2d"
                }
            }
        }
    ]
}