{
    "resourceType": "Bundle",
    "id": "600036a8-c7d9-41fe-ba69-5fa5390cbc29",
    "meta": {
        "lastUpdated": "2021-06-07T12:30:45.986+01:00",
        "profile": [ "https://fhir.nhs.uk/STU3/StructureDefinition/ITK-Message-Bundle-1" ]
    },
    "identifier": {
        "system": "https://tools.ietf.org/html/rfc4122",
        "value": "48d791bc-9861-47b5-9f81-91237c45355f"
    },
    "type": "message",
    "entry": [ {
        "fullUrl": "urn:uuid:01fc8cd1-780d-4aaf-9a09-39453f5b5aaa",
        "resource": {
            "resourceType": "MessageHeader",
            "id": "01fc8cd1-780d-4aaf-9a09-39453f5b5aaa",
            "meta": {
                "profile": [ "https://fhir.nhs.uk/STU3/StructureDefinition/ITK-MessageHeader-2" ]
            },
            "extension": [ {
                "url": "https://fhir.nhs.uk/STU3/StructureDefinition/Extension-ITK-MessageHandling-2",
                "extension": [ {
                    "url": "BusAckRequested",
                    "valueBoolean": true
                }, {
                    "url": "InfAckRequested",
                    "valueBoolean": true
                }, {
                    "url": "RecipientType",
                    "valueCoding": {
                        "system": "https://fhir.nhs.uk/STU3/CodeSystem/ITK-RecipientType-1",
                        "code": "FA",
                        "display": "For Action"
                    }
                }, {
                    "url": "SenderReference",
                    "valueString": "None"
                }, {
                    "url": "LocalExtension",
                    "valueString": "None"
                } ]
            } ],
            "event": {
                "system": "https://fhir.nhs.uk/STU3/CodeSystem/ITK-MessageEvent-2",
                "code": "ITK012M",
                "display": "ITK National Pathology"
            },
            "receiver": {
                "reference": "urn:uuid:5a8efb89-c4d4-40d3-939c-a47f7372eabd"
            },
            "sender": {
                "reference": "urn:uuid:8a1809e6-548d-43eb-a97f-99c47a5ff818"
            },
            "timestamp": "2009-11-13T15:19:00.000+00:00",
            "source": {
                "endpoint": "lab_results_mailbox"
            },
            "responsible": {
                "reference": "urn:uuid:8a1809e6-548d-43eb-a97f-99c47a5ff818"
            },
            "focus": [ {
                "reference": "urn:uuid:abecb81e-4220-4f2e-8ae2-1568d17ea5e0"
            } ]
        }
    }, {
        "fullUrl": "urn:uuid:b15390f3-35a6-463f-813e-61467733e074",
        "resource": {
            "resourceType": "Patient",
            "id": "b15390f3-35a6-463f-813e-61467733e074",
            "meta": {
                "profile": [ "https://fhir.hl7.org.uk/STU3/StructureDefinition/CareConnect-Patient-1" ]
            },
            "name": [ {
                "use": "official",
                "family": "EL-ASSAN",
                "given": [ "HABIB" ]
            } ],
            "gender": "male",
            "birthDate": "1957-01-16",
            "address": [ {
                "line": [ "HIGHWOOD BUNGALOW", "EXETER", "DEVON" ],
                "postalCode": "TQ14 4QJ"
            } ]
        }
    }, {
        "fullUrl": "urn:uuid:d51534f0-7dcf-459a-9516-7a7c06bf418d",
        "resource": {
            "resourceType": "Practitioner",
            "id": "d51534f0-7dcf-459a-9516-7a7c06bf418d",
            "meta": {
                "profile": [ "https://fhir.hl7.org.uk/STU3/StructureDefinition/CareConnect-Practitioner-1" ]
            },
            "name": [ {
                "text": "BCSP Hub Manager"
            } ]
        }
    }, {
        "fullUrl": "urn:uuid:5a8efb89-c4d4-40d3-939c-a47f7372eabd",
        "resource": {
            "resourceType": "Organization",
            "id": "5a8efb89-c4d4-40d3-939c-a47f7372eabd",
            "meta": {
                "profile": [ "https://fhir.hl7.org.uk/STU3/StructureDefinition/CareConnect-Organization-1" ]
            }
        }
    }, {
        "fullUrl": "urn:uuid:110a8f32-995e-4339-b484-ef714b98094c",
        "resource": {
            "resourceType": "Practitioner",
            "id": "110a8f32-995e-4339-b484-ef714b98094c",
            "meta": {
                "profile": [ "https://fhir.hl7.org.uk/STU3/StructureDefinition/CareConnect-Practitioner-1" ]
            }
        }
    }, {
        "fullUrl": "urn:uuid:8a1809e6-548d-43eb-a97f-99c47a5ff818",
        "resource": {
            "resourceType": "Organization",
            "id": "8a1809e6-548d-43eb-a97f-99c47a5ff818",
            "meta": {
                "profile": [ "https://fhir.hl7.org.uk/STU3/StructureDefinition/CareConnect-Organization-1" ]
            },
            "type": [ {
                "coding": [ {
                    "code": "dept",
                    "display": "UNKNOWN"
                } ]
            } ],
            "name": "Southern Bowel Cancer Screening Pro:gramme Hub"
        }
    }, {
        "fullUrl": "urn:uuid:50626f40-00bb-4456-a828-ae1521c46ea3",
        "resource": {
            "resourceType": "ProcedureRequest",
            "id": "50626f40-00bb-4456-a828-ae1521c46ea3",
            "meta": {
                "profile": [ "https://fhir.hl7.org.uk/STU3/StructureDefinition/CareConnect-ProcedureRequest-1" ]
            },
            "status": "active",
            "intent": "order",
            "code": {
                "coding": [ {
                    "system": "http://snomed.info/sct",
                    "code": "15220000",
                    "display": "Laboratory test (procedure)"
                } ]
            },
            "subject": {
                "reference": "urn:uuid:b15390f3-35a6-463f-813e-61467733e074"
            },
            "requester": {
                "agent": {
                    "reference": "urn:uuid:d51534f0-7dcf-459a-9516-7a7c06bf418d"
                },
                "onBehalfOf": {
                    "reference": "urn:uuid:5a8efb89-c4d4-40d3-939c-a47f7372eabd"
                }
            },
            "performer": {
                "reference": "urn:uuid:110a8f32-995e-4339-b484-ef714b98094c"
            }
        }
    }, {
        "fullUrl": "urn:uuid:abecb81e-4220-4f2e-8ae2-1568d17ea5e0",
        "resource": {
            "resourceType": "DiagnosticReport",
            "id": "abecb81e-4220-4f2e-8ae2-1568d17ea5e0",
            "meta": {
                "profile": [ "https://fhir.hl7.org.uk/STU3/StructureDefinition/CareConnect-DiagnosticReport-1" ]
            },
            "identifier": [ {
                "system": "https://tools.ietf.org/html/rfc4122",
                "value": "34/1"
            } ],
            "basedOn": [ {
                "reference": "urn:uuid:50626f40-00bb-4456-a828-ae1521c46ea3"
            } ],
            "status": "unknown",
            "code": {
                "coding": [ {
                    "system": "http://snomed.info/sct",
                    "code": "721981007",
                    "display": "Diagnostic studies report"
                } ]
            },
            "subject": {
                "reference": "urn:uuid:b15390f3-35a6-463f-813e-61467733e074"
            },
            "issued": "2009-11-10T11:45:00.000+00:00",
            "performer": [ {
                "actor": {
                    "reference": "urn:uuid:8a1809e6-548d-43eb-a97f-99c47a5ff818"
                }
            }, {
                "actor": {
                    "reference": "urn:uuid:110a8f32-995e-4339-b484-ef714b98094c"
                }
            } ],
            "specimen": [ {
                "reference": "urn:uuid:192693dc-e84e-4b92-8ddb-6eddb3ac3c3d"
            } ],
            "result": [ {
                "reference": "urn:uuid:7d842d09-5b48-480e-99ba-f36aba3e7030"
            } ]
        }
    }, {
        "fullUrl": "urn:uuid:192693dc-e84e-4b92-8ddb-6eddb3ac3c3d",
        "resource": {
            "resourceType": "Specimen",
            "id": "192693dc-e84e-4b92-8ddb-6eddb3ac3c3d",
            "meta": {
                "profile": [ "https://fhir.hl7.org.uk/STU3/StructureDefinition/CareConnect-Specimen-1" ]
            },
            "type": {
                "coding": [ {
                    "system": "http://snomed.info/sct",
                    "display": "Faeces"
                } ]
            },
            "subject": {
                "reference": "urn:uuid:b15390f3-35a6-463f-813e-61467733e074"
            }
        }
    }, {
        "fullUrl": "urn:uuid:7d842d09-5b48-480e-99ba-f36aba3e7030",
        "resource": {
            "resourceType": "Observation",
            "id": "7d842d09-5b48-480e-99ba-f36aba3e7030",
            "meta": {
                "profile": [ "https://fhir.hl7.org.uk/STU3/StructureDefinition/CareConnect-Observation-1" ]
            },
            "status": "unknown",
            "code": {
                "coding": [ {
                    "system": "http://snomed.info/sct",
                    "code": "368481000000103",
                    "display": "BCS?:FOB result"
                } ]
            },
            "subject": {
                "reference": "urn:uuid:b15390f3-35a6-463f-813e-61467733e074"
            },
            "performer": [ {
                "reference": "urn:uuid:8a1809e6-548d-43eb-a97f-99c47a5ff818"
            }, {
                "reference": "urn:uuid:110a8f32-995e-4339-b484-ef714b98094c"
            } ],
            "valueCodeableConcept": {
                "coding": [ {
                    "system": "http://snomed.info/sct",
                    "code": "375211000000108",
                    "display": "Bowel cancer screening programme FOB test normal (finding)"
                } ]
            },
            "comment": "Normal. Sent following an initial single Negative result or following 2 Negative results after an initial Weak Positive",
            "specimen": {
                "reference": "urn:uuid:192693dc-e84e-4b92-8ddb-6eddb3ac3c3d"
            }
        }
    } ]
}