{
    "resourceType": "Bundle",
    "id": "0330b70b-8375-4532-bf94-5ecf8b699007",
    "meta": {
        "lastUpdated": "2021-05-31T12:48:16.032+01:00",
        "profile": [
            "https://fhir.nhs.uk/STU3/StructureDefinition/ITK-Message-Bundle-1"
        ]
    },
    "identifier": {
        "system": "https://tools.ietf.org/html/rfc4122",
        "value": "afbfb78d-c322-49b3-be5b-3e53f564a656"
    },
    "type": "message",
    "entry": [
        {
            "fullUrl": "urn:uuid:aacede95-ca21-464f-bf57-c57bbd2fc07a",
            "resource": {
                "resourceType": "MessageHeader",
                "id": "aacede95-ca21-464f-bf57-c57bbd2fc07a",
                "meta": {
                    "profile": [
                        "https://fhir.nhs.uk/STU3/StructureDefinition/ITK-MessageHeader-2"
                    ]
                },
                "extension": [
                    {
                        "url": "https://fhir.nhs.uk/STU3/StructureDefinition/Extension-ITK-MessageHandling-2",
                        "extension": [
                            {
                                "url": "BusAckRequested",
                                "valueBoolean": true
                            },
                            {
                                "url": "InfAckRequested",
                                "valueBoolean": true
                            },
                            {
                                "url": "RecipientType",
                                "valueCoding": {
                                    "system": "https://fhir.nhs.uk/STU3/CodeSystem/ITK-RecipientType-1",
                                    "code": "FA",
                                    "display": "For Action"
                                }
                            },
                            {
                                "url": "SenderReference",
                                "valueString": "None"
                            },
                            {
                                "url": "LocalExtension",
                                "valueString": "None"
                            }
                        ]
                    }
                ],
                "event": {
                    "system": "https://fhir.nhs.uk/STU3/CodeSystem/ITK-MessageEvent-2",
                    "code": "ITK012M",
                    "display": "ITK National Pathology"
                },
                "receiver": {
                    "reference": "urn:uuid:fdda56b3-ec00-4231-aa73-3e9c9b79b0cc"
                },
                "sender": {
                    "reference": "urn:uuid:8c9f2793-3bea-41df-a73a-e15124217bdd"
                },
                "timestamp": "2009-11-13T15:19:00.000+00:00",
                "source": {
                    "endpoint": "lab_results_mailbox"
                },
                "responsible": {
                    "reference": "urn:uuid:8c9f2793-3bea-41df-a73a-e15124217bdd"
                },
                "focus": [
                    {
                        "reference": "urn:uuid:949f097b-081f-44f7-8949-c1d11e65421e"
                    }
                ]
            }
        },
        {
            "fullUrl": "urn:uuid:eadd12b0-eb2e-4dfc-8ae9-7521f1d453a4",
            "resource": {
                "resourceType": "Patient",
                "id": "eadd12b0-eb2e-4dfc-8ae9-7521f1d453a4",
                "meta": {
                    "profile": [
                        "https://fhir.hl7.org.uk/STU3/StructureDefinition/CareConnect-Patient-1"
                    ]
                },
                "identifier": [
                    {
                        "extension": [
                            {
                                "url": "https://fhir.hl7.org.uk/STU3/StructureDefinition/Extension-CareConnect-NHSNumberVerificationStatus-1",
                                "valueCodeableConcept": {
                                    "coding": [
                                        {
                                            "system": "https://fhir.hl7.org.uk/STU3/CodeSystem/CareConnect-NHSNumberVerificationStatus-1",
                                            "code": "01",
                                            "display": "Number present and verified"
                                        }
                                    ]
                                }
                            }
                        ],
                        "system": "https://fhir.nhs.uk/Id/nhs-number",
                        "value": "9435468969"
                    }
                ],
                "name": [
                    {
                        "use": "official",
                        "family": "VIVATMA",
                        "given": [
                            "SHARADA"
                        ]
                    }
                ],
                "gender": "female",
                "birthDate": "1914-03-08",
                "address": [
                    {
                        "line": [
                            "HIGHWOOD BUNGALOW",
                            "EXETER",
                            "DEVON"
                        ],
                        "postalCode": "TQ14 4QJ"
                    }
                ]
            }
        },
        {
            "fullUrl": "urn:uuid:af5722f2-8a13-4b78-8f52-01f57c8f7091",
            "resource": {
                "resourceType": "Practitioner",
                "id": "af5722f2-8a13-4b78-8f52-01f57c8f7091",
                "meta": {
                    "profile": [
                        "https://fhir.hl7.org.uk/STU3/StructureDefinition/CareConnect-Practitioner-1"
                    ]
                },
                "name": [
                    {
                        "text": "BCSP Hub Manager"
                    }
                ]
            }
        },
        {
            "fullUrl": "urn:uuid:fdda56b3-ec00-4231-aa73-3e9c9b79b0cc",
            "resource": {
                "resourceType": "Organization",
                "id": "fdda56b3-ec00-4231-aa73-3e9c9b79b0cc",
                "meta": {
                    "profile": [
                        "https://fhir.hl7.org.uk/STU3/StructureDefinition/CareConnect-Organization-1"
                    ]
                }
            }
        },
        {
            "fullUrl": "urn:uuid:c7333da1-6eb9-4ae0-a1b9-f5cc04c30ec7",
            "resource": {
                "resourceType": "Practitioner",
                "id": "c7333da1-6eb9-4ae0-a1b9-f5cc04c30ec7",
                "meta": {
                    "profile": [
                        "https://fhir.hl7.org.uk/STU3/StructureDefinition/CareConnect-Practitioner-1"
                    ]
                }
            }
        },
        {
            "fullUrl": "urn:uuid:8c9f2793-3bea-41df-a73a-e15124217bdd",
            "resource": {
                "resourceType": "Organization",
                "id": "8c9f2793-3bea-41df-a73a-e15124217bdd",
                "meta": {
                    "profile": [
                        "https://fhir.hl7.org.uk/STU3/StructureDefinition/CareConnect-Organization-1"
                    ]
                },
                "type": [
                    {
                        "coding": [
                            {
                                "code": "dept",
                                "display": "UNKNOWN"
                            }
                        ]
                    }
                ],
                "name": "Southern Bowel Cancer Screening Pro:gramme Hub"
            }
        },
        {
            "fullUrl": "urn:uuid:2f0b4dcf-0218-42a3-b9dd-1fbf6560a5ae",
            "resource": {
                "resourceType": "ProcedureRequest",
                "id": "2f0b4dcf-0218-42a3-b9dd-1fbf6560a5ae",
                "meta": {
                    "profile": [
                        "https://fhir.hl7.org.uk/STU3/StructureDefinition/CareConnect-ProcedureRequest-1"
                    ]
                },
                "status": "unknown",
                "intent": "order",
                "code": {
                    "coding": [
                        {
                            "system": "http://snomed.info/sct",
                            "code": "15220000",
                            "display": "Laboratory test (procedure)"
                        }
                    ]
                },
                "subject": {
                    "reference": "urn:uuid:eadd12b0-eb2e-4dfc-8ae9-7521f1d453a4"
                },
                "requester": {
                    "agent": {
                        "reference": "urn:uuid:af5722f2-8a13-4b78-8f52-01f57c8f7091"
                    },
                    "onBehalfOf": {
                        "reference": "urn:uuid:fdda56b3-ec00-4231-aa73-3e9c9b79b0cc"
                    }
                },
                "performer": {
                    "reference": "urn:uuid:c7333da1-6eb9-4ae0-a1b9-f5cc04c30ec7"
                },
                "note": [
                    {
                        "text": "COELIAC"
                    }
                ]
            }
        },
        {
            "fullUrl": "urn:uuid:949f097b-081f-44f7-8949-c1d11e65421e",
            "resource": {
                "resourceType": "DiagnosticReport",
                "id": "949f097b-081f-44f7-8949-c1d11e65421e",
                "meta": {
                    "profile": [
                        "https://fhir.hl7.org.uk/STU3/StructureDefinition/CareConnect-DiagnosticReport-1"
                    ]
                },
                "identifier": [
                    {
                        "system": "https://tools.ietf.org/html/rfc4122",
                        "value": "34/1"
                    }
                ],
                "basedOn": [
                    {
                        "reference": "urn:uuid:2f0b4dcf-0218-42a3-b9dd-1fbf6560a5ae"
                    }
                ],
                "status": "unknown",
                "code": {
                    "coding": [
                        {
                            "system": "http://snomed.info/sct",
                            "code": "721981007",
                            "display": "Diagnostic studies report"
                        }
                    ]
                },
                "subject": {
                    "reference": "urn:uuid:eadd12b0-eb2e-4dfc-8ae9-7521f1d453a4"
                },
                "issued": "2009-11-10T11:45:00.000+00:00",
                "performer": [
                    {
                        "actor": {
                            "reference": "urn:uuid:8c9f2793-3bea-41df-a73a-e15124217bdd"
                        }
                    },
                    {
                        "actor": {
                            "reference": "urn:uuid:c7333da1-6eb9-4ae0-a1b9-f5cc04c30ec7"
                        }
                    }
                ],
                "specimen": [
                    {
                        "reference": "urn:uuid:d011613d-d4e2-440b-a43f-201ed40125cf"
                    }
                ],
                "result": [
                    {
                        "reference": "urn:uuid:bddfad5d-cc4c-4564-98e1-93502742b88f"
                    }
                ]
            }
        },
        {
            "fullUrl": "urn:uuid:d011613d-d4e2-440b-a43f-201ed40125cf",
            "resource": {
                "resourceType": "Specimen",
                "id": "d011613d-d4e2-440b-a43f-201ed40125cf",
                "meta": {
                    "profile": [
                        "https://fhir.hl7.org.uk/STU3/StructureDefinition/CareConnect-Specimen-1"
                    ]
                },
                "type": {
                    "coding": [
                        {
                            "system": "http://snomed.info/sct",
                            "display": "Faeces"
                        }
                    ]
                },
                "subject": {
                    "reference": "urn:uuid:eadd12b0-eb2e-4dfc-8ae9-7521f1d453a4"
                }
            }
        },
        {
            "fullUrl": "urn:uuid:bddfad5d-cc4c-4564-98e1-93502742b88f",
            "resource": {
                "resourceType": "Observation",
                "id": "bddfad5d-cc4c-4564-98e1-93502742b88f",
                "meta": {
                    "profile": [
                        "https://fhir.hl7.org.uk/STU3/StructureDefinition/CareConnect-Observation-1"
                    ]
                },
                "status": "unknown",
                "code": {
                    "coding": [
                        {
                            "system": "http://snomed.info/sct",
                            "code": "368481000000103",
                            "display": "BCS?:FOB result"
                        }
                    ]
                },
                "subject": {
                    "reference": "urn:uuid:eadd12b0-eb2e-4dfc-8ae9-7521f1d453a4"
                },
                "performer": [
                    {
                        "reference": "urn:uuid:8c9f2793-3bea-41df-a73a-e15124217bdd"
                    },
                    {
                        "reference": "urn:uuid:c7333da1-6eb9-4ae0-a1b9-f5cc04c30ec7"
                    }
                ],
                "valueCodeableConcept": {
                    "coding": [
                        {
                            "system": "http://snomed.info/sct",
                            "code": "375211000000108",
                            "display": "Bowel cancer screening programme FOB test normal (finding)"
                        }
                    ]
                },
                "comment": "Normal. Sent following an initial single Negative result or following 2 Negative results after an initial Weak Positive",
                "specimen": {
                    "reference": "urn:uuid:d011613d-d4e2-440b-a43f-201ed40125cf"
                }
            }
        }
    ]
}