{
    "resourceType": "Bundle",
    "id": "3b498479-9ce4-43df-a256-48457e5a5ab2",
    "meta": {
        "lastUpdated": "2021-05-31T12:47:21.031+01:00",
        "profile": [
            "https://fhir.nhs.uk/STU3/StructureDefinition/ITK-Message-Bundle-1"
        ]
    },
    "identifier": {
        "system": "https://tools.ietf.org/html/rfc4122",
        "value": "02ad4730-da84-4c8c-8a3a-42aea74290a1"
    },
    "type": "message",
    "entry": [
        {
            "fullUrl": "urn:uuid:f5585af1-d687-48f5-9cc0-d615187e9764",
            "resource": {
                "resourceType": "MessageHeader",
                "id": "f5585af1-d687-48f5-9cc0-d615187e9764",
                "meta": {
                    "profile": [
                        "https://fhir.nhs.uk/STU3/StructureDefinition/ITK-MessageHeader-2"
                    ]
                },
                "extension": [
                    {
                        "url": "https://fhir.nhs.uk/STU3/StructureDefinition/Extension-ITK-MessageHandling-2",
                        "extension": [
                            {
                                "url": "BusAckRequested",
                                "valueBoolean": true
                            },
                            {
                                "url": "InfAckRequested",
                                "valueBoolean": true
                            },
                            {
                                "url": "RecipientType",
                                "valueCoding": {
                                    "system": "https://fhir.nhs.uk/STU3/CodeSystem/ITK-RecipientType-1",
                                    "code": "FA",
                                    "display": "For Action"
                                }
                            },
                            {
                                "url": "SenderReference",
                                "valueString": "None"
                            },
                            {
                                "url": "LocalExtension",
                                "valueString": "None"
                            }
                        ]
                    }
                ],
                "event": {
                    "system": "https://fhir.nhs.uk/STU3/CodeSystem/ITK-MessageEvent-2",
                    "code": "ITK012M",
                    "display": "ITK National Pathology"
                },
                "receiver": {
                    "reference": "urn:uuid:59901e6d-0c24-4858-b0f0-9495d4a6b5a1"
                },
                "sender": {
                    "reference": "urn:uuid:e22cf217-dcbd-43ac-9d46-5437b63d3358"
                },
                "timestamp": "2009-11-13T15:19:00.000+00:00",
                "source": {
                    "endpoint": "lab_results_mailbox"
                },
                "responsible": {
                    "reference": "urn:uuid:e22cf217-dcbd-43ac-9d46-5437b63d3358"
                },
                "focus": [
                    {
                        "reference": "urn:uuid:aebc5aaf-aa29-4ea6-aba2-7789fcdb1a02"
                    }
                ]
            }
        },
        {
            "fullUrl": "urn:uuid:f2649cfd-bf7b-484e-8178-047070a4dba6",
            "resource": {
                "resourceType": "Patient",
                "id": "f2649cfd-bf7b-484e-8178-047070a4dba6",
                "meta": {
                    "profile": [
                        "https://fhir.hl7.org.uk/STU3/StructureDefinition/CareConnect-Patient-1"
                    ]
                },
                "identifier": [
                    {
                        "extension": [
                            {
                                "url": "https://fhir.hl7.org.uk/STU3/StructureDefinition/Extension-CareConnect-NHSNumberVerificationStatus-1",
                                "valueCodeableConcept": {
                                    "coding": [
                                        {
                                            "system": "https://fhir.hl7.org.uk/STU3/CodeSystem/CareConnect-NHSNumberVerificationStatus-1",
                                            "code": "01",
                                            "display": "Number present and verified"
                                        }
                                    ]
                                }
                            }
                        ],
                        "system": "https://fhir.nhs.uk/Id/nhs-number",
                        "value": "8982821201"
                    }
                ],
                "name": [
                    {
                        "use": "official",
                        "family": "GRIMSHAW",
                        "given": [
                            "BRETT"
                        ],
                        "prefix": [
                            "CAPT"
                        ]
                    }
                ],
                "gender": "male",
                "birthDate": "1938-02-06",
                "address": [
                    {
                        "line": [
                            "HIGHWOOD BUNGALOW",
                            "EXETER",
                            "DEVON"
                        ],
                        "postalCode": "TQ14 4QJ"
                    }
                ]
            }
        },
        {
            "fullUrl": "urn:uuid:9eb4104b-4ce6-448b-85b6-517f8bb6b52f",
            "resource": {
                "resourceType": "Practitioner",
                "id": "9eb4104b-4ce6-448b-85b6-517f8bb6b52f",
                "meta": {
                    "profile": [
                        "https://fhir.hl7.org.uk/STU3/StructureDefinition/CareConnect-Practitioner-1"
                    ]
                },
                "name": [
                    {
                        "text": "BCSP Hub Manager"
                    }
                ]
            }
        },
        {
            "fullUrl": "urn:uuid:59901e6d-0c24-4858-b0f0-9495d4a6b5a1",
            "resource": {
                "resourceType": "Organization",
                "id": "59901e6d-0c24-4858-b0f0-9495d4a6b5a1",
                "meta": {
                    "profile": [
                        "https://fhir.hl7.org.uk/STU3/StructureDefinition/CareConnect-Organization-1"
                    ]
                }
            }
        },
        {
            "fullUrl": "urn:uuid:cc251bf7-93e9-47d8-a8c3-c0aa7fbd22ad",
            "resource": {
                "resourceType": "Practitioner",
                "id": "cc251bf7-93e9-47d8-a8c3-c0aa7fbd22ad",
                "meta": {
                    "profile": [
                        "https://fhir.hl7.org.uk/STU3/StructureDefinition/CareConnect-Practitioner-1"
                    ]
                }
            }
        },
        {
            "fullUrl": "urn:uuid:e22cf217-dcbd-43ac-9d46-5437b63d3358",
            "resource": {
                "resourceType": "Organization",
                "id": "e22cf217-dcbd-43ac-9d46-5437b63d3358",
                "meta": {
                    "profile": [
                        "https://fhir.hl7.org.uk/STU3/StructureDefinition/CareConnect-Organization-1"
                    ]
                },
                "type": [
                    {
                        "coding": [
                            {
                                "code": "dept",
                                "display": "UNKNOWN"
                            }
                        ]
                    }
                ],
                "name": "Southern Bowel Cancer Screening Pro:gramme Hub"
            }
        },
        {
            "fullUrl": "urn:uuid:75ed5354-0971-47ce-a78d-24e1ad503e6c",
            "resource": {
                "resourceType": "ProcedureRequest",
                "id": "75ed5354-0971-47ce-a78d-24e1ad503e6c",
                "meta": {
                    "profile": [
                        "https://fhir.hl7.org.uk/STU3/StructureDefinition/CareConnect-ProcedureRequest-1"
                    ]
                },
                "status": "active",
                "intent": "order",
                "code": {
                    "coding": [
                        {
                            "system": "http://snomed.info/sct",
                            "code": "15220000",
                            "display": "Laboratory test (procedure)"
                        }
                    ]
                },
                "subject": {
                    "reference": "urn:uuid:f2649cfd-bf7b-484e-8178-047070a4dba6"
                },
                "requester": {
                    "agent": {
                        "reference": "urn:uuid:9eb4104b-4ce6-448b-85b6-517f8bb6b52f"
                    },
                    "onBehalfOf": {
                        "reference": "urn:uuid:59901e6d-0c24-4858-b0f0-9495d4a6b5a1"
                    }
                },
                "performer": {
                    "reference": "urn:uuid:cc251bf7-93e9-47d8-a8c3-c0aa7fbd22ad"
                }
            }
        },
        {
            "fullUrl": "urn:uuid:aebc5aaf-aa29-4ea6-aba2-7789fcdb1a02",
            "resource": {
                "resourceType": "DiagnosticReport",
                "id": "aebc5aaf-aa29-4ea6-aba2-7789fcdb1a02",
                "meta": {
                    "profile": [
                        "https://fhir.hl7.org.uk/STU3/StructureDefinition/CareConnect-DiagnosticReport-1"
                    ]
                },
                "identifier": [
                    {
                        "system": "https://tools.ietf.org/html/rfc4122",
                        "value": "34/1"
                    }
                ],
                "basedOn": [
                    {
                        "reference": "urn:uuid:75ed5354-0971-47ce-a78d-24e1ad503e6c"
                    }
                ],
                "status": "unknown",
                "code": {
                    "coding": [
                        {
                            "system": "http://snomed.info/sct",
                            "code": "721981007",
                            "display": "Diagnostic studies report"
                        }
                    ]
                },
                "subject": {
                    "reference": "urn:uuid:f2649cfd-bf7b-484e-8178-047070a4dba6"
                },
                "issued": "2009-11-10T11:45:00.000+00:00",
                "performer": [
                    {
                        "actor": {
                            "reference": "urn:uuid:e22cf217-dcbd-43ac-9d46-5437b63d3358"
                        }
                    },
                    {
                        "actor": {
                            "reference": "urn:uuid:cc251bf7-93e9-47d8-a8c3-c0aa7fbd22ad"
                        }
                    }
                ],
                "specimen": [
                    {
                        "reference": "urn:uuid:aaeb545e-949c-43e7-bab5-829c853dd273"
                    }
                ],
                "result": [
                    {
                        "reference": "urn:uuid:1af04c15-814e-4382-b4d4-e2310484e6a2"
                    }
                ]
            }
        },
        {
            "fullUrl": "urn:uuid:aaeb545e-949c-43e7-bab5-829c853dd273",
            "resource": {
                "resourceType": "Specimen",
                "id": "aaeb545e-949c-43e7-bab5-829c853dd273",
                "meta": {
                    "profile": [
                        "https://fhir.hl7.org.uk/STU3/StructureDefinition/CareConnect-Specimen-1"
                    ]
                },
                "type": {
                    "coding": [
                        {
                            "system": "http://snomed.info/sct",
                            "display": "Faeces"
                        }
                    ]
                },
                "subject": {
                    "reference": "urn:uuid:f2649cfd-bf7b-484e-8178-047070a4dba6"
                }
            }
        },
        {
            "fullUrl": "urn:uuid:1af04c15-814e-4382-b4d4-e2310484e6a2",
            "resource": {
                "resourceType": "Observation",
                "id": "1af04c15-814e-4382-b4d4-e2310484e6a2",
                "meta": {
                    "profile": [
                        "https://fhir.hl7.org.uk/STU3/StructureDefinition/CareConnect-Observation-1"
                    ]
                },
                "status": "unknown",
                "code": {
                    "coding": [
                        {
                            "system": "http://snomed.info/sct",
                            "code": "368481000000103",
                            "display": "BCS?:FOB result"
                        }
                    ]
                },
                "subject": {
                    "reference": "urn:uuid:f2649cfd-bf7b-484e-8178-047070a4dba6"
                },
                "performer": [
                    {
                        "reference": "urn:uuid:e22cf217-dcbd-43ac-9d46-5437b63d3358"
                    },
                    {
                        "reference": "urn:uuid:cc251bf7-93e9-47d8-a8c3-c0aa7fbd22ad"
                    }
                ],
                "valueCodeableConcept": {
                    "coding": [
                        {
                            "system": "http://snomed.info/sct",
                            "code": "375211000000108",
                            "display": "Bowel cancer screening programme FOB test normal (finding)"
                        }
                    ]
                },
                "comment": "Normal. Sent following an initial single Negative result or following 2 Negative results after an initial Weak Positive",
                "specimen": {
                    "reference": "urn:uuid:aaeb545e-949c-43e7-bab5-829c853dd273"
                }
            }
        }
    ]
}