{
  "resourceType": "Bundle",
  "id": "2752c9b2-38d5-4381-b553-aac0aa005d28",
  "meta": {
    "lastUpdated": "2021-03-16T16:44:41.215+00:00",
    "profile": [
      "https://fhir.nhs.uk/STU3/StructureDefinition/ITK-Message-Bundle-1"
    ]
  },
  "identifier": {
    "system": "https://tools.ietf.org/html/rfc4122",
    "value": "88e42f55-e962-4d02-946c-29e55920bdbe"
  },
  "type": "message",
  "entry": [
    {
      "fullUrl": "urn:uuid:52a9362f-c497-4613-b3bf-2143d08854d1",
      "resource": {
        "resourceType": "Patient",
        "id": "52a9362f-c497-4613-b3bf-2143d08854d1",
        "meta": {
          "profile": [
            "https://fhir.hl7.org.uk/STU3/StructureDefinition/CareConnect-Patient-1"
          ]
        },
        "identifier": [
          {
            "system": "https://fhir.nhs.uk/Id/nhs-number",
            "value": "8982821201"
          }
        ],
        "name": [
          {
            "family": "GRIMSHAW",
            "given": [
              "BRETT"
            ],
            "prefix": [
              "CAPT"
            ]
          }
        ],
        "gender": "male",
        "birthDate": "1938-02-06",
        "address": [
          {
            "line": [ "HIGHWOOD BUNGALOW", "EXETER", "DEVON" ],
            "postalCode": "TQ14 4QJ"
          }
        ]
      }
    },
    {
      "fullUrl": "urn:uuid:38274698-a93f-427e-b695-f052aedab438",
      "resource": {
        "resourceType": "Practitioner",
        "id": "38274698-a93f-427e-b695-f052aedab438",
        "meta": {
          "profile": [
            "https://fhir.hl7.org.uk/STU3/StructureDefinition/CareConnect-Practitioner-1"
          ]
        },
        "name": [
          {
            "text": "BCSP Hub Manager"
          }
        ]
      }
    },
    {
      "fullUrl": "urn:uuid:eccac168-d398-4fb0-bfc8-0f6c750fd078",
      "resource": {
        "resourceType": "Organization",
        "id": "eccac168-d398-4fb0-bfc8-0f6c750fd078",
        "meta": {
          "profile": [
            "https://fhir.hl7.org.uk/STU3/StructureDefinition/CareConnect-Organization-1"
          ]
        },
        "type": [
          {
            "coding": [
              {
                "code": "dept",
                "display": "UNKNOWN"
              }
            ]
          }
        ],
        "name": "Southern Bowel Cancer Screening Pro:gramme Hub"
      }
    },
    {
      "fullUrl": "urn:uuid:23c97a9d-ac0e-4b7c-8418-2098883db28a",
      "resource": {
        "resourceType": "DiagnosticReport",
        "id": "23c97a9d-ac0e-4b7c-8418-2098883db28a",
        "meta": {
          "profile": [
            "https://fhir.hl7.org.uk/STU3/StructureDefinition/CareConnect-DiagnosticReport-1"
          ]
        },
        "identifier": [
          {
            "value": "34/1"
          }
        ],
        "status": "unknown",
        "code": {
          "coding": [
            {
              "system": "http://snomed.info/sct",
              "code": "721981007",
              "display": "Diagnostic studies report"
            }
          ]
        },
        "subject": {
          "reference": "urn:uuid:52a9362f-c497-4613-b3bf-2143d08854d1"
        },
        "issued": "2009-11-10T11:45:00.000+00:00",
        "performer": [
          {
            "actor": {
              "reference": "urn:uuid:eccac168-d398-4fb0-bfc8-0f6c750fd078"
            }
          }
        ],
        "specimen": [
          {
            "reference": "urn:uuid:1cee5c64-f8ee-472e-ab5b-fa656700a1e5"
          }
        ],
        "result": [
          {
            "reference": "urn:uuid:49bbab03-6860-4420-b3c7-3342860b4155"
          }
        ]
      }
    },
    {
      "fullUrl": "urn:uuid:1cee5c64-f8ee-472e-ab5b-fa656700a1e5",
      "resource": {
        "resourceType": "Specimen",
        "id": "1cee5c64-f8ee-472e-ab5b-fa656700a1e5",
        "meta": {
          "profile": [
            "https://fhir.hl7.org.uk/STU3/StructureDefinition/CareConnect-Specimen-1"
          ]
        },
        "type": {
          "coding": [
            {
              "system": "http://snomed.info/sct",
              "display": "Faeces"
            }
          ]
        },
        "subject": {
          "reference": "urn:uuid:52a9362f-c497-4613-b3bf-2143d08854d1"
        }
      }
    },
    {
      "fullUrl": "urn:uuid:49bbab03-6860-4420-b3c7-3342860b4155",
      "resource": {
        "resourceType": "Observation",
        "id": "49bbab03-6860-4420-b3c7-3342860b4155",
        "meta": {
          "profile": [
            "https://fhir.hl7.org.uk/STU3/StructureDefinition/CareConnect-Observation-1"
          ]
        },
        "status": "unknown",
        "code": {
          "coding": [
            {
              "system": "http://snomed.info/sct",
              "code": "368481000000103",
              "display": "BCS?:FOB result"
            }
          ]
        },
        "subject": {
          "reference": "urn:uuid:52a9362f-c497-4613-b3bf-2143d08854d1"
        },
        "performer": [
          {
            "reference": "urn:uuid:eccac168-d398-4fb0-bfc8-0f6c750fd078"
          }
        ],
        "valueCodeableConcept": {
          "coding": [
            {
              "system": "http://snomed.info/sct",
              "code": "375211000000108",
              "display": "Bowel cancer screening programme FOB test normal (finding)"
            }
          ]
        },
        "comment": "Normal. Sent following an initial single Negative result or following 2 Negative results after an initial Weak Positive",
        "specimen": {
          "reference": "urn:uuid:1cee5c64-f8ee-472e-ab5b-fa656700a1e5"
        }
      }
    }
  ]
}