{
    "resourceType": "Bundle",
    "id": "03afb2f4-b5ba-4e3e-a83b-6ccd5dc8c8f1",
    "meta": {
        "lastUpdated": "2021-04-27T13:33:03.317+01:00",
        "profile": [
            "https://fhir.nhs.uk/STU3/StructureDefinition/ITK-Message-Bundle-1"
        ]
    },
    "identifier": {
        "system": "https://tools.ietf.org/html/rfc4122",
        "value": "7153fc40-8a13-44f9-8afe-086da50c10ad"
    },
    "type": "message",
    "entry": [
        {
            "fullUrl": "urn:uuid:3665610c-1e9d-4920-b3ab-1abef550e58c",
            "resource": {
                "resourceType": "MessageHeader",
                "id": "3665610c-1e9d-4920-b3ab-1abef550e58c",
                "meta": {
                    "profile": [
                        "https://fhir.nhs.uk/STU3/StructureDefinition/ITK-MessageHeader-2"
                    ]
                },
                "extension": [
                    {
                        "url": "https://fhir.nhs.uk/STU3/StructureDefinition/Extension-ITK-MessageHandling-2",
                        "extension": [
                            {
                                "url": "BusAckRequested",
                                "valueBoolean": true
                            },
                            {
                                "url": "InfAckRequested",
                                "valueBoolean": true
                            },
                            {
                                "url": "RecipientType",
                                "valueCoding": {
                                    "system": "https://fhir.nhs.uk/STU3/CodeSystem/ITK-RecipientType-1",
                                    "code": "FA",
                                    "display": "For Action"
                                }
                            },
                            {
                                "url": "SenderReference",
                                "valueString": "None"
                            },
                            {
                                "url": "LocalExtension",
                                "valueString": "None"
                            }
                        ]
                    }
                ],
                "event": {
                    "system": "https://fhir.nhs.uk/STU3/CodeSystem/ITK-MessageEvent-2",
                    "code": "ITK012M",
                    "display": "ITK National Pathology"
                },
                "receiver": {
                    "reference": "urn:uuid:fd0bbd17-c4d1-4de9-a2f3-03457fbd4602"
                },
                "sender": {
                    "reference": "urn:uuid:cc661cff-bca1-4b0c-8199-ad3b537be91e"
                },
                "timestamp": "2009-11-13T15:19:00.000+00:00",
                "source": {
                    "endpoint": "lab_results_mailbox"
                },
                "responsible": {
                    "reference": "urn:uuid:cc661cff-bca1-4b0c-8199-ad3b537be91e"
                },
                "focus": [
                    {
                        "reference": "urn:uuid:dcd29205-eb1f-4002-a615-12e4d18f006c"
                    }
                ]
            }
        },
        {
            "fullUrl": "urn:uuid:b582401c-fd62-454d-b519-a930ae4a1fb4",
            "resource": {
                "resourceType": "Patient",
                "id": "b582401c-fd62-454d-b519-a930ae4a1fb4",
                "meta": {
                    "profile": [
                        "https://fhir.hl7.org.uk/STU3/StructureDefinition/CareConnect-Patient-1"
                    ]
                },
                "identifier": [
                    {
                        "extension": [
                            {
                                "url": "https://fhir.hl7.org.uk/STU3/StructureDefinition/Extension-CareConnect-NHSNumberVerificationStatus-1",
                                "valueCodeableConcept": {
                                    "coding": [
                                        {
                                            "system": "https://fhir.hl7.org.uk/STU3/CodeSystem/CareConnect-NHSNumberVerificationStatus-1",
                                            "code": "01",
                                            "display": "Number present and verified"
                                        }
                                    ]
                                }
                            }
                        ],
                        "system": "https://fhir.nhs.uk/Id/nhs-number",
                        "value": "9435468969"
                    }
                ],
                "name": [
                    {
                        "use": "official",
                        "family": "VIVATMA",
                        "given": [
                            "SHARADA"
                        ]
                    }
                ],
                "gender": "female",
                "birthDate": "1914-03-08",
                "address": [
                    {
                        "line": [
                            "HIGHWOOD BUNGALOW",
                            "EXETER",
                            "DEVON"
                        ],
                        "postalCode": "TQ14 4QJ"
                    }
                ]
            }
        },
        {
            "fullUrl": "urn:uuid:e17838a6-c3ab-49be-99c1-202ad5035af5",
            "resource": {
                "resourceType": "Practitioner",
                "id": "e17838a6-c3ab-49be-99c1-202ad5035af5",
                "meta": {
                    "profile": [
                        "https://fhir.hl7.org.uk/STU3/StructureDefinition/CareConnect-Practitioner-1"
                    ]
                },
                "name": [
                    {
                        "text": "BCSP Hub Manager"
                    }
                ]
            }
        },
        {
            "fullUrl": "urn:uuid:fd0bbd17-c4d1-4de9-a2f3-03457fbd4602",
            "resource": {
                "resourceType": "Organization",
                "id": "fd0bbd17-c4d1-4de9-a2f3-03457fbd4602",
                "meta": {
                    "profile": [
                        "https://fhir.hl7.org.uk/STU3/StructureDefinition/CareConnect-Organization-1"
                    ]
                }
            }
        },
        {
            "fullUrl": "urn:uuid:8ce313b4-59fd-494a-9eb5-ccda933b3c26",
            "resource": {
                "resourceType": "Practitioner",
                "id": "8ce313b4-59fd-494a-9eb5-ccda933b3c26",
                "meta": {
                    "profile": [
                        "https://fhir.hl7.org.uk/STU3/StructureDefinition/CareConnect-Practitioner-1"
                    ]
                }
            }
        },
        {
            "fullUrl": "urn:uuid:cc661cff-bca1-4b0c-8199-ad3b537be91e",
            "resource": {
                "resourceType": "Organization",
                "id": "cc661cff-bca1-4b0c-8199-ad3b537be91e",
                "meta": {
                    "profile": [
                        "https://fhir.hl7.org.uk/STU3/StructureDefinition/CareConnect-Organization-1"
                    ]
                },
                "type": [
                    {
                        "coding": [
                            {
                                "code": "dept",
                                "display": "UNKNOWN"
                            }
                        ]
                    }
                ],
                "name": "Southern Bowel Cancer Screening Pro:gramme Hub"
            }
        },
        {
            "fullUrl": "urn:uuid:0d9eb622-998e-4643-ab73-295785eadd67",
            "resource": {
                "resourceType": "ProcedureRequest",
                "id": "0d9eb622-998e-4643-ab73-295785eadd67",
                "meta": {
                    "profile": [
                        "https://fhir.hl7.org.uk/STU3/StructureDefinition/CareConnect-ProcedureRequest-1"
                    ]
                },
                "status": "unknown",
                "intent": "order",
                "code": {
                    "text": "unknown"
                },
                "subject": {
                    "reference": "urn:uuid:b582401c-fd62-454d-b519-a930ae4a1fb4"
                },
                "requester": {
                    "agent": {
                        "reference": "urn:uuid:e17838a6-c3ab-49be-99c1-202ad5035af5"
                    },
                    "onBehalfOf": {
                        "reference": "urn:uuid:fd0bbd17-c4d1-4de9-a2f3-03457fbd4602"
                    }
                },
                "performer": {
                    "reference": "urn:uuid:8ce313b4-59fd-494a-9eb5-ccda933b3c26"
                },
                "note": [
                    {
                        "text": "COELIAC"
                    }
                ]
            }
        },
        {
            "fullUrl": "urn:uuid:dcd29205-eb1f-4002-a615-12e4d18f006c",
            "resource": {
                "resourceType": "DiagnosticReport",
                "id": "dcd29205-eb1f-4002-a615-12e4d18f006c",
                "meta": {
                    "profile": [
                        "https://fhir.hl7.org.uk/STU3/StructureDefinition/CareConnect-DiagnosticReport-1"
                    ]
                },
                "identifier": [
                    {
                        "system": "https://tools.ietf.org/html/rfc4122",
                        "value": "34/1"
                    }
                ],
                "basedOn": [
                    {
                        "reference": "urn:uuid:0d9eb622-998e-4643-ab73-295785eadd67"
                    }
                ],
                "status": "unknown",
                "code": {
                    "coding": [
                        {
                            "system": "http://snomed.info/sct",
                            "code": "721981007",
                            "display": "Diagnostic studies report"
                        }
                    ]
                },
                "subject": {
                    "reference": "urn:uuid:b582401c-fd62-454d-b519-a930ae4a1fb4"
                },
                "issued": "2009-11-10T11:45:00.000+00:00",
                "performer": [
                    {
                        "actor": {
                            "reference": "urn:uuid:cc661cff-bca1-4b0c-8199-ad3b537be91e"
                        }
                    },
                    {
                        "actor": {
                            "reference": "urn:uuid:8ce313b4-59fd-494a-9eb5-ccda933b3c26"
                        }
                    }
                ],
                "specimen": [
                    {
                        "reference": "urn:uuid:5f686d02-7757-4a86-a9bc-20608de49705"
                    }
                ],
                "result": [
                    {
                        "reference": "urn:uuid:fd963128-7b51-489f-aa33-ca72ac3d45ba"
                    }
                ]
            }
        },
        {
            "fullUrl": "urn:uuid:5f686d02-7757-4a86-a9bc-20608de49705",
            "resource": {
                "resourceType": "Specimen",
                "id": "5f686d02-7757-4a86-a9bc-20608de49705",
                "meta": {
                    "profile": [
                        "https://fhir.hl7.org.uk/STU3/StructureDefinition/CareConnect-Specimen-1"
                    ]
                },
                "type": {
                    "coding": [
                        {
                            "system": "http://snomed.info/sct",
                            "display": "Faeces"
                        }
                    ]
                },
                "subject": {
                    "reference": "urn:uuid:b582401c-fd62-454d-b519-a930ae4a1fb4"
                }
            }
        },
        {
            "fullUrl": "urn:uuid:fd963128-7b51-489f-aa33-ca72ac3d45ba",
            "resource": {
                "resourceType": "Observation",
                "id": "fd963128-7b51-489f-aa33-ca72ac3d45ba",
                "meta": {
                    "profile": [
                        "https://fhir.hl7.org.uk/STU3/StructureDefinition/CareConnect-Observation-1"
                    ]
                },
                "status": "unknown",
                "code": {
                    "coding": [
                        {
                            "system": "http://snomed.info/sct",
                            "code": "368481000000103",
                            "display": "BCS?:FOB result"
                        }
                    ]
                },
                "subject": {
                    "reference": "urn:uuid:b582401c-fd62-454d-b519-a930ae4a1fb4"
                },
                "performer": [
                    {
                        "reference": "urn:uuid:cc661cff-bca1-4b0c-8199-ad3b537be91e"
                    },
                    {
                        "reference": "urn:uuid:8ce313b4-59fd-494a-9eb5-ccda933b3c26"
                    }
                ],
                "valueCodeableConcept": {
                    "coding": [
                        {
                            "system": "http://snomed.info/sct",
                            "code": "375211000000108",
                            "display": "Bowel cancer screening programme FOB test normal (finding)"
                        }
                    ]
                },
                "comment": "Normal. Sent following an initial single Negative result or following 2 Negative results after an initial Weak Positive",
                "specimen": {
                    "reference": "urn:uuid:5f686d02-7757-4a86-a9bc-20608de49705"
                }
            }
        }
    ]
}