{
    "resourceType": "Bundle",
    "id": "39112f2d-201b-45af-8404-f1ee0906af8d",
    "meta": {
        "lastUpdated": "2021-04-27T13:33:26.826+01:00",
        "profile": [
            "https://fhir.nhs.uk/STU3/StructureDefinition/ITK-Message-Bundle-1"
        ]
    },
    "identifier": {
        "system": "https://tools.ietf.org/html/rfc4122",
        "value": "fd31c0ae-be5d-4669-8d83-7433039eb2e2"
    },
    "type": "message",
    "entry": [
        {
            "fullUrl": "urn:uuid:6f967827-ff0c-4a51-bc16-18ec8f8dc4fe",
            "resource": {
                "resourceType": "MessageHeader",
                "id": "6f967827-ff0c-4a51-bc16-18ec8f8dc4fe",
                "meta": {
                    "profile": [
                        "https://fhir.nhs.uk/STU3/StructureDefinition/ITK-MessageHeader-2"
                    ]
                },
                "extension": [
                    {
                        "url": "https://fhir.nhs.uk/STU3/StructureDefinition/Extension-ITK-MessageHandling-2",
                        "extension": [
                            {
                                "url": "BusAckRequested",
                                "valueBoolean": true
                            },
                            {
                                "url": "InfAckRequested",
                                "valueBoolean": true
                            },
                            {
                                "url": "RecipientType",
                                "valueCoding": {
                                    "system": "https://fhir.nhs.uk/STU3/CodeSystem/ITK-RecipientType-1",
                                    "code": "FA",
                                    "display": "For Action"
                                }
                            },
                            {
                                "url": "SenderReference",
                                "valueString": "None"
                            },
                            {
                                "url": "LocalExtension",
                                "valueString": "None"
                            }
                        ]
                    }
                ],
                "event": {
                    "system": "https://fhir.nhs.uk/STU3/CodeSystem/ITK-MessageEvent-2",
                    "code": "ITK012M",
                    "display": "ITK National Pathology"
                },
                "receiver": {
                    "reference": "urn:uuid:e5b3e20c-0bbe-43d3-b0b3-9378367191af"
                },
                "sender": {
                    "reference": "urn:uuid:9bcf8ab3-c8c5-4948-bfd2-f561399e07f8"
                },
                "timestamp": "2009-11-13T15:19:00.000+00:00",
                "source": {
                    "endpoint": "lab_results_mailbox"
                },
                "responsible": {
                    "reference": "urn:uuid:9bcf8ab3-c8c5-4948-bfd2-f561399e07f8"
                },
                "focus": [
                    {
                        "reference": "urn:uuid:b835210d-6ce5-4bcb-92e9-c6e6fc88e3df"
                    }
                ]
            }
        },
        {
            "fullUrl": "urn:uuid:bb1b8484-8540-4439-a738-6296dc710bbf",
            "resource": {
                "resourceType": "Patient",
                "id": "bb1b8484-8540-4439-a738-6296dc710bbf",
                "meta": {
                    "profile": [
                        "https://fhir.hl7.org.uk/STU3/StructureDefinition/CareConnect-Patient-1"
                    ]
                },
                "name": [
                    {
                        "use": "official",
                        "family": "ABLE",
                        "given": [
                            "JEREMIAS"
                        ]
                    }
                ],
                "gender": "male",
                "birthDate": "1915-12-01"
            }
        },
        {
            "fullUrl": "urn:uuid:29e6808d-8bd1-4f7d-b97b-10b0c62c8a12",
            "resource": {
                "resourceType": "Practitioner",
                "id": "29e6808d-8bd1-4f7d-b97b-10b0c62c8a12",
                "meta": {
                    "profile": [
                        "https://fhir.hl7.org.uk/STU3/StructureDefinition/CareConnect-Practitioner-1"
                    ]
                },
                "name": [
                    {
                        "text": "BCSP Hub Manager"
                    }
                ]
            }
        },
        {
            "fullUrl": "urn:uuid:e5b3e20c-0bbe-43d3-b0b3-9378367191af",
            "resource": {
                "resourceType": "Organization",
                "id": "e5b3e20c-0bbe-43d3-b0b3-9378367191af",
                "meta": {
                    "profile": [
                        "https://fhir.hl7.org.uk/STU3/StructureDefinition/CareConnect-Organization-1"
                    ]
                }
            }
        },
        {
            "fullUrl": "urn:uuid:8560b9ec-08f3-429f-b91d-5cd6ddf47889",
            "resource": {
                "resourceType": "Practitioner",
                "id": "8560b9ec-08f3-429f-b91d-5cd6ddf47889",
                "meta": {
                    "profile": [
                        "https://fhir.hl7.org.uk/STU3/StructureDefinition/CareConnect-Practitioner-1"
                    ]
                }
            }
        },
        {
            "fullUrl": "urn:uuid:9bcf8ab3-c8c5-4948-bfd2-f561399e07f8",
            "resource": {
                "resourceType": "Organization",
                "id": "9bcf8ab3-c8c5-4948-bfd2-f561399e07f8",
                "meta": {
                    "profile": [
                        "https://fhir.hl7.org.uk/STU3/StructureDefinition/CareConnect-Organization-1"
                    ]
                },
                "type": [
                    {
                        "coding": [
                            {
                                "code": "dept",
                                "display": "UNKNOWN"
                            }
                        ]
                    }
                ],
                "name": "Southern Bowel Cancer Screening Pro:gramme Hub"
            }
        },
        {
            "fullUrl": "urn:uuid:883f5e20-20e3-45ff-83b8-20374d7b4cc3",
            "resource": {
                "resourceType": "ProcedureRequest",
                "id": "883f5e20-20e3-45ff-83b8-20374d7b4cc3",
                "meta": {
                    "profile": [
                        "https://fhir.hl7.org.uk/STU3/StructureDefinition/CareConnect-ProcedureRequest-1"
                    ]
                },
                "status": "active",
                "intent": "order",
                "code": {
                    "text": "unknown"
                },
                "subject": {
                    "reference": "urn:uuid:bb1b8484-8540-4439-a738-6296dc710bbf"
                },
                "requester": {
                    "agent": {
                        "reference": "urn:uuid:29e6808d-8bd1-4f7d-b97b-10b0c62c8a12"
                    },
                    "onBehalfOf": {
                        "reference": "urn:uuid:e5b3e20c-0bbe-43d3-b0b3-9378367191af"
                    }
                },
                "performer": {
                    "reference": "urn:uuid:8560b9ec-08f3-429f-b91d-5cd6ddf47889"
                }
            }
        },
        {
            "fullUrl": "urn:uuid:b835210d-6ce5-4bcb-92e9-c6e6fc88e3df",
            "resource": {
                "resourceType": "DiagnosticReport",
                "id": "b835210d-6ce5-4bcb-92e9-c6e6fc88e3df",
                "meta": {
                    "profile": [
                        "https://fhir.hl7.org.uk/STU3/StructureDefinition/CareConnect-DiagnosticReport-1"
                    ]
                },
                "identifier": [
                    {
                        "system": "https://tools.ietf.org/html/rfc4122",
                        "value": "34/1"
                    }
                ],
                "basedOn": [
                    {
                        "reference": "urn:uuid:883f5e20-20e3-45ff-83b8-20374d7b4cc3"
                    }
                ],
                "status": "unknown",
                "code": {
                    "coding": [
                        {
                            "system": "http://snomed.info/sct",
                            "code": "721981007",
                            "display": "Diagnostic studies report"
                        }
                    ]
                },
                "subject": {
                    "reference": "urn:uuid:bb1b8484-8540-4439-a738-6296dc710bbf"
                },
                "issued": "2009-11-10T11:45:00.000+00:00",
                "performer": [
                    {
                        "actor": {
                            "reference": "urn:uuid:9bcf8ab3-c8c5-4948-bfd2-f561399e07f8"
                        }
                    },
                    {
                        "actor": {
                            "reference": "urn:uuid:8560b9ec-08f3-429f-b91d-5cd6ddf47889"
                        }
                    }
                ],
                "specimen": [
                    {
                        "reference": "urn:uuid:634f5dac-71a0-440d-8c96-3083a3cd59e5"
                    }
                ],
                "result": [
                    {
                        "reference": "urn:uuid:ffaba33d-eb14-4a03-a26b-c3e4c637405c"
                    }
                ]
            }
        },
        {
            "fullUrl": "urn:uuid:634f5dac-71a0-440d-8c96-3083a3cd59e5",
            "resource": {
                "resourceType": "Specimen",
                "id": "634f5dac-71a0-440d-8c96-3083a3cd59e5",
                "meta": {
                    "profile": [
                        "https://fhir.hl7.org.uk/STU3/StructureDefinition/CareConnect-Specimen-1"
                    ]
                },
                "type": {
                    "coding": [
                        {
                            "system": "http://snomed.info/sct",
                            "display": "Faeces"
                        }
                    ]
                },
                "subject": {
                    "reference": "urn:uuid:bb1b8484-8540-4439-a738-6296dc710bbf"
                }
            }
        },
        {
            "fullUrl": "urn:uuid:ffaba33d-eb14-4a03-a26b-c3e4c637405c",
            "resource": {
                "resourceType": "Observation",
                "id": "ffaba33d-eb14-4a03-a26b-c3e4c637405c",
                "meta": {
                    "profile": [
                        "https://fhir.hl7.org.uk/STU3/StructureDefinition/CareConnect-Observation-1"
                    ]
                },
                "status": "unknown",
                "code": {
                    "coding": [
                        {
                            "system": "http://snomed.info/sct",
                            "code": "368481000000103",
                            "display": "BCS?:FOB result"
                        }
                    ]
                },
                "subject": {
                    "reference": "urn:uuid:bb1b8484-8540-4439-a738-6296dc710bbf"
                },
                "performer": [
                    {
                        "reference": "urn:uuid:9bcf8ab3-c8c5-4948-bfd2-f561399e07f8"
                    },
                    {
                        "reference": "urn:uuid:8560b9ec-08f3-429f-b91d-5cd6ddf47889"
                    }
                ],
                "valueCodeableConcept": {
                    "coding": [
                        {
                            "system": "http://snomed.info/sct",
                            "code": "384241000000100",
                            "display": "Bowel cancer screening prog FOB tst incomplete participation (finding)"
                        }
                    ]
                },
                "specimen": {
                    "reference": "urn:uuid:634f5dac-71a0-440d-8c96-3083a3cd59e5"
                }
            }
        }
    ]
}