{
    "resourceType": "Bundle",
    "id": "72607022-b9b3-4c70-9989-900413d95f94",
    "meta": {
        "lastUpdated": "2021-06-08T10:53:47.485+01:00",
        "profile": [
            "https://fhir.nhs.uk/STU3/StructureDefinition/ITK-Message-Bundle-1"
        ]
    },
    "identifier": {
        "system": "https://tools.ietf.org/html/rfc4122",
        "value": "80535c28-2de5-47d6-8331-2a257e2b456f"
    },
    "type": "message",
    "entry": [
        {
            "fullUrl": "urn:uuid:94a9ccab-18e1-4e74-b2ed-1c91bf3f8769",
            "resource": {
                "resourceType": "MessageHeader",
                "id": "94a9ccab-18e1-4e74-b2ed-1c91bf3f8769",
                "meta": {
                    "profile": [
                        "https://fhir.nhs.uk/STU3/StructureDefinition/ITK-MessageHeader-2"
                    ]
                },
                "extension": [
                    {
                        "url": "https://fhir.nhs.uk/STU3/StructureDefinition/Extension-ITK-MessageHandling-2",
                        "extension": [
                            {
                                "url": "BusAckRequested",
                                "valueBoolean": true
                            },
                            {
                                "url": "InfAckRequested",
                                "valueBoolean": true
                            },
                            {
                                "url": "RecipientType",
                                "valueCoding": {
                                    "system": "https://fhir.nhs.uk/STU3/CodeSystem/ITK-RecipientType-1",
                                    "code": "FA",
                                    "display": "For Action"
                                }
                            },
                            {
                                "url": "SenderReference",
                                "valueString": "None"
                            },
                            {
                                "url": "LocalExtension",
                                "valueString": "None"
                            }
                        ]
                    }
                ],
                "event": {
                    "system": "https://fhir.nhs.uk/STU3/CodeSystem/ITK-MessageEvent-2",
                    "code": "ITK012M",
                    "display": "ITK National Pathology"
                },
                "receiver": {
                    "reference": "urn:uuid:b7b31e86-f5a1-4fcf-8342-60fd0e202096"
                },
                "sender": {
                    "reference": "urn:uuid:aeb2d811-2fb9-414d-a518-16694dc3fabb"
                },
                "timestamp": "2009-11-13T15:19:00.000+00:00",
                "source": {
                    "endpoint": "lab_results_mailbox"
                },
                "responsible": {
                    "reference": "urn:uuid:aeb2d811-2fb9-414d-a518-16694dc3fabb"
                },
                "focus": [
                    {
                        "reference": "urn:uuid:be08f1a2-0ff6-4d08-92b7-3a01d5f843bd"
                    }
                ]
            }
        },
        {
            "fullUrl": "urn:uuid:07d0dd54-0a3c-408c-b572-522a8e758730",
            "resource": {
                "resourceType": "Patient",
                "id": "07d0dd54-0a3c-408c-b572-522a8e758730",
                "meta": {
                    "profile": [
                        "https://fhir.hl7.org.uk/STU3/StructureDefinition/CareConnect-Patient-1"
                    ]
                },
                "name": [
                    {
                        "use": "official",
                        "family": "EL-ASSAN",
                        "given": [
                            "HABIB"
                        ]
                    }
                ],
                "gender": "male",
                "birthDate": "1957-01-16",
                "address": [
                    {
                        "line": [
                            "HIGHWOOD BUNGALOW",
                            "EXETER",
                            "DEVON"
                        ],
                        "postalCode": "TQ14 4QJ"
                    }
                ]
            }
        },
        {
            "fullUrl": "urn:uuid:903fcbf2-f40a-4297-8e65-2dcf927bc7bc",
            "resource": {
                "resourceType": "Practitioner",
                "id": "903fcbf2-f40a-4297-8e65-2dcf927bc7bc",
                "meta": {
                    "profile": [
                        "https://fhir.hl7.org.uk/STU3/StructureDefinition/CareConnect-Practitioner-1"
                    ]
                },
                "name": [
                    {
                        "text": "BCSP Hub Manager"
                    }
                ]
            }
        },
        {
            "fullUrl": "urn:uuid:b7b31e86-f5a1-4fcf-8342-60fd0e202096",
            "resource": {
                "resourceType": "Organization",
                "id": "b7b31e86-f5a1-4fcf-8342-60fd0e202096",
                "meta": {
                    "profile": [
                        "https://fhir.hl7.org.uk/STU3/StructureDefinition/CareConnect-Organization-1"
                    ]
                }
            }
        },
        {
            "fullUrl": "urn:uuid:d06d4318-c028-4a3c-9f88-45ba68046eca",
            "resource": {
                "resourceType": "Practitioner",
                "id": "d06d4318-c028-4a3c-9f88-45ba68046eca",
                "meta": {
                    "profile": [
                        "https://fhir.hl7.org.uk/STU3/StructureDefinition/CareConnect-Practitioner-1"
                    ]
                }
            }
        },
        {
            "fullUrl": "urn:uuid:aeb2d811-2fb9-414d-a518-16694dc3fabb",
            "resource": {
                "resourceType": "Organization",
                "id": "aeb2d811-2fb9-414d-a518-16694dc3fabb",
                "meta": {
                    "profile": [
                        "https://fhir.hl7.org.uk/STU3/StructureDefinition/CareConnect-Organization-1"
                    ]
                },
                "type": [
                    {
                        "coding": [
                            {
                                "code": "dept",
                                "display": "UNKNOWN"
                            }
                        ]
                    }
                ],
                "name": "Southern Bowel Cancer Screening Pro:gramme Hub"
            }
        },
        {
            "fullUrl": "urn:uuid:93910ad2-f0aa-4508-8be0-836938379182",
            "resource": {
                "resourceType": "ProcedureRequest",
                "id": "93910ad2-f0aa-4508-8be0-836938379182",
                "meta": {
                    "profile": [
                        "https://fhir.hl7.org.uk/STU3/StructureDefinition/CareConnect-ProcedureRequest-1"
                    ]
                },
                "status": "active",
                "intent": "order",
                "code": {
                    "coding": [
                        {
                            "system": "http://snomed.info/sct",
                            "code": "15220000",
                            "display": "Laboratory test (procedure)"
                        }
                    ]
                },
                "subject": {
                    "reference": "urn:uuid:07d0dd54-0a3c-408c-b572-522a8e758730"
                },
                "requester": {
                    "agent": {
                        "reference": "urn:uuid:903fcbf2-f40a-4297-8e65-2dcf927bc7bc"
                    },
                    "onBehalfOf": {
                        "reference": "urn:uuid:b7b31e86-f5a1-4fcf-8342-60fd0e202096"
                    }
                },
                "performer": {
                    "reference": "urn:uuid:d06d4318-c028-4a3c-9f88-45ba68046eca"
                }
            }
        },
        {
            "fullUrl": "urn:uuid:be08f1a2-0ff6-4d08-92b7-3a01d5f843bd",
            "resource": {
                "resourceType": "DiagnosticReport",
                "id": "be08f1a2-0ff6-4d08-92b7-3a01d5f843bd",
                "meta": {
                    "profile": [
                        "https://fhir.hl7.org.uk/STU3/StructureDefinition/CareConnect-DiagnosticReport-1"
                    ]
                },
                "identifier": [
                    {
                        "system": "https://tools.ietf.org/html/rfc4122",
                        "value": "34/1"
                    }
                ],
                "basedOn": [
                    {
                        "reference": "urn:uuid:93910ad2-f0aa-4508-8be0-836938379182"
                    }
                ],
                "status": "unknown",
                "code": {
                    "coding": [
                        {
                            "system": "http://snomed.info/sct",
                            "code": "721981007",
                            "display": "Diagnostic studies report"
                        }
                    ]
                },
                "subject": {
                    "reference": "urn:uuid:07d0dd54-0a3c-408c-b572-522a8e758730"
                },
                "issued": "2009-11-10T11:45:00.000+00:00",
                "performer": [
                    {
                        "actor": {
                            "reference": "urn:uuid:aeb2d811-2fb9-414d-a518-16694dc3fabb"
                        }
                    },
                    {
                        "actor": {
                            "reference": "urn:uuid:d06d4318-c028-4a3c-9f88-45ba68046eca"
                        }
                    }
                ],
                "specimen": [
                    {
                        "reference": "urn:uuid:14df4c62-413e-4c16-a975-bc85c9627214"
                    }
                ],
                "result": [
                    {
                        "reference": "urn:uuid:09da8254-27bd-4337-acf6-7bf1778ebde2"
                    }
                ]
            }
        },
        {
            "fullUrl": "urn:uuid:14df4c62-413e-4c16-a975-bc85c9627214",
            "resource": {
                "resourceType": "Specimen",
                "id": "14df4c62-413e-4c16-a975-bc85c9627214",
                "meta": {
                    "profile": [
                        "https://fhir.hl7.org.uk/STU3/StructureDefinition/CareConnect-Specimen-1"
                    ]
                },
                "type": {
                    "coding": [
                        {
                            "display": "Faeces"
                        }
                    ]
                },
                "subject": {
                    "reference": "urn:uuid:07d0dd54-0a3c-408c-b572-522a8e758730"
                }
            }
        },
        {
            "fullUrl": "urn:uuid:09da8254-27bd-4337-acf6-7bf1778ebde2",
            "resource": {
                "resourceType": "Observation",
                "id": "09da8254-27bd-4337-acf6-7bf1778ebde2",
                "meta": {
                    "profile": [
                        "https://fhir.hl7.org.uk/STU3/StructureDefinition/CareConnect-Observation-1"
                    ]
                },
                "status": "unknown",
                "code": {
                    "coding": [
                        {
                            "system": "http://snomed.info/sct",
                            "code": "368481000000103",
                            "display": "BCS:FOB result"
                        }
                    ]
                },
                "subject": {
                    "reference": "urn:uuid:07d0dd54-0a3c-408c-b572-522a8e758730"
                },
                "performer": [
                    {
                        "reference": "urn:uuid:aeb2d811-2fb9-414d-a518-16694dc3fabb"
                    },
                    {
                        "reference": "urn:uuid:d06d4318-c028-4a3c-9f88-45ba68046eca"
                    }
                ],
                "valueCodeableConcept": {
                    "coding": [
                        {
                            "system": "http://snomed.info/sct",
                            "code": "375211000000108",
                            "display": "Bowel cancer screening programme FOB test normal (finding)"
                        }
                    ]
                },
                "comment": "Normal. Sent following an initial single Negative result or following 2 Negative results after an initial Weak Positive",
                "specimen": {
                    "reference": "urn:uuid:14df4c62-413e-4c16-a975-bc85c9627214"
                }
            }
        }
    ]
}