{
    "resourceType": "Bundle",
    "id": "2b036457-e7ab-40b7-a94f-edbc43b00418",
    "meta": {
        "lastUpdated": "2021-06-07T12:30:47.744+01:00",
        "profile": [ "https://fhir.nhs.uk/STU3/StructureDefinition/ITK-Message-Bundle-1" ]
    },
    "identifier": {
        "system": "https://tools.ietf.org/html/rfc4122",
        "value": "39e745f2-c327-4214-9ebc-014a525379b0"
    },
    "type": "message",
    "entry": [ {
        "fullUrl": "urn:uuid:86661363-a23b-4e6a-993d-8be122ce8fb1",
        "resource": {
            "resourceType": "MessageHeader",
            "id": "86661363-a23b-4e6a-993d-8be122ce8fb1",
            "meta": {
                "profile": [ "https://fhir.nhs.uk/STU3/StructureDefinition/ITK-MessageHeader-2" ]
            },
            "extension": [ {
                "url": "https://fhir.nhs.uk/STU3/StructureDefinition/Extension-ITK-MessageHandling-2",
                "extension": [ {
                    "url": "BusAckRequested",
                    "valueBoolean": true
                }, {
                    "url": "InfAckRequested",
                    "valueBoolean": true
                }, {
                    "url": "RecipientType",
                    "valueCoding": {
                        "system": "https://fhir.nhs.uk/STU3/CodeSystem/ITK-RecipientType-1",
                        "code": "FA",
                        "display": "For Action"
                    }
                }, {
                    "url": "SenderReference",
                    "valueString": "None"
                }, {
                    "url": "LocalExtension",
                    "valueString": "None"
                } ]
            } ],
            "event": {
                "system": "https://fhir.nhs.uk/STU3/CodeSystem/ITK-MessageEvent-2",
                "code": "ITK012M",
                "display": "ITK National Pathology"
            },
            "receiver": {
                "reference": "urn:uuid:26494f1d-6673-4ffd-9e9d-fbd07a67a0b6"
            },
            "sender": {
                "reference": "urn:uuid:fc9d122b-9fd0-4215-aa19-09ee32e07d44"
            },
            "timestamp": "2009-11-13T15:19:00.000+00:00",
            "source": {
                "endpoint": "lab_results_mailbox"
            },
            "responsible": {
                "reference": "urn:uuid:fc9d122b-9fd0-4215-aa19-09ee32e07d44"
            },
            "focus": [ {
                "reference": "urn:uuid:1cb1c41b-8fc1-47f9-9976-be0663cbc78d"
            } ]
        }
    }, {
        "fullUrl": "urn:uuid:97a04c9d-96b1-4ca8-998c-0ae0e79c07c2",
        "resource": {
            "resourceType": "Patient",
            "id": "97a04c9d-96b1-4ca8-998c-0ae0e79c07c2",
            "meta": {
                "profile": [ "https://fhir.hl7.org.uk/STU3/StructureDefinition/CareConnect-Patient-1" ]
            },
            "identifier": [ {
                "extension": [ {
                    "url": "https://fhir.hl7.org.uk/STU3/StructureDefinition/Extension-CareConnect-NHSNumberVerificationStatus-1",
                    "valueCodeableConcept": {
                        "coding": [ {
                            "system": "https://fhir.hl7.org.uk/STU3/CodeSystem/CareConnect-NHSNumberVerificationStatus-1",
                            "code": "01",
                            "display": "Number present and verified"
                        } ]
                    }
                } ],
                "system": "https://fhir.nhs.uk/Id/nhs-number",
                "value": "9435468969"
            } ],
            "name": [ {
                "use": "official",
                "family": "VIVATMA",
                "given": [ "SHARADA" ]
            } ],
            "gender": "female",
            "birthDate": "1914-03-08",
            "address": [ {
                "line": [ "HIGHWOOD BUNGALOW", "EXETER", "DEVON" ],
                "postalCode": "TQ14 4QJ"
            } ]
        }
    }, {
        "fullUrl": "urn:uuid:f3e4d254-fc77-4d5a-9507-d90327e8f973",
        "resource": {
            "resourceType": "Practitioner",
            "id": "f3e4d254-fc77-4d5a-9507-d90327e8f973",
            "meta": {
                "profile": [ "https://fhir.hl7.org.uk/STU3/StructureDefinition/CareConnect-Practitioner-1" ]
            },
            "name": [ {
                "text": "BCSP Hub Manager"
            } ]
        }
    }, {
        "fullUrl": "urn:uuid:26494f1d-6673-4ffd-9e9d-fbd07a67a0b6",
        "resource": {
            "resourceType": "Organization",
            "id": "26494f1d-6673-4ffd-9e9d-fbd07a67a0b6",
            "meta": {
                "profile": [ "https://fhir.hl7.org.uk/STU3/StructureDefinition/CareConnect-Organization-1" ]
            }
        }
    }, {
        "fullUrl": "urn:uuid:8ce53a42-42b7-4ffb-b61f-901362c8696b",
        "resource": {
            "resourceType": "Practitioner",
            "id": "8ce53a42-42b7-4ffb-b61f-901362c8696b",
            "meta": {
                "profile": [ "https://fhir.hl7.org.uk/STU3/StructureDefinition/CareConnect-Practitioner-1" ]
            }
        }
    }, {
        "fullUrl": "urn:uuid:fc9d122b-9fd0-4215-aa19-09ee32e07d44",
        "resource": {
            "resourceType": "Organization",
            "id": "fc9d122b-9fd0-4215-aa19-09ee32e07d44",
            "meta": {
                "profile": [ "https://fhir.hl7.org.uk/STU3/StructureDefinition/CareConnect-Organization-1" ]
            },
            "type": [ {
                "coding": [ {
                    "code": "dept",
                    "display": "UNKNOWN"
                } ]
            } ],
            "name": "Southern Bowel Cancer Screening Pro:gramme Hub"
        }
    }, {
        "fullUrl": "urn:uuid:759b26a2-e89d-474f-b6f8-7351a9be15b3",
        "resource": {
            "resourceType": "ProcedureRequest",
            "id": "759b26a2-e89d-474f-b6f8-7351a9be15b3",
            "meta": {
                "profile": [ "https://fhir.hl7.org.uk/STU3/StructureDefinition/CareConnect-ProcedureRequest-1" ]
            },
            "status": "unknown",
            "intent": "order",
            "code": {
                "coding": [ {
                    "system": "http://snomed.info/sct",
                    "code": "15220000",
                    "display": "Laboratory test (procedure)"
                } ]
            },
            "subject": {
                "reference": "urn:uuid:97a04c9d-96b1-4ca8-998c-0ae0e79c07c2"
            },
            "requester": {
                "agent": {
                    "reference": "urn:uuid:f3e4d254-fc77-4d5a-9507-d90327e8f973"
                },
                "onBehalfOf": {
                    "reference": "urn:uuid:26494f1d-6673-4ffd-9e9d-fbd07a67a0b6"
                }
            },
            "performer": {
                "reference": "urn:uuid:8ce53a42-42b7-4ffb-b61f-901362c8696b"
            },
            "note": [ {
                "text": "COELIAC"
            } ]
        }
    }, {
        "fullUrl": "urn:uuid:1cb1c41b-8fc1-47f9-9976-be0663cbc78d",
        "resource": {
            "resourceType": "DiagnosticReport",
            "id": "1cb1c41b-8fc1-47f9-9976-be0663cbc78d",
            "meta": {
                "profile": [ "https://fhir.hl7.org.uk/STU3/StructureDefinition/CareConnect-DiagnosticReport-1" ]
            },
            "identifier": [ {
                "system": "https://tools.ietf.org/html/rfc4122",
                "value": "34/1"
            } ],
            "basedOn": [ {
                "reference": "urn:uuid:759b26a2-e89d-474f-b6f8-7351a9be15b3"
            } ],
            "status": "unknown",
            "code": {
                "coding": [ {
                    "system": "http://snomed.info/sct",
                    "code": "721981007",
                    "display": "Diagnostic studies report"
                } ]
            },
            "subject": {
                "reference": "urn:uuid:97a04c9d-96b1-4ca8-998c-0ae0e79c07c2"
            },
            "issued": "2009-11-10T11:45:00.000+00:00",
            "performer": [ {
                "actor": {
                    "reference": "urn:uuid:fc9d122b-9fd0-4215-aa19-09ee32e07d44"
                }
            }, {
                "actor": {
                    "reference": "urn:uuid:8ce53a42-42b7-4ffb-b61f-901362c8696b"
                }
            } ],
            "specimen": [ {
                "reference": "urn:uuid:34de3189-1f87-422e-a677-331ac2ece8f9"
            } ],
            "result": [ {
                "reference": "urn:uuid:1c71e5bc-dd6f-4e71-ab57-d042fe06501b"
            } ]
        }
    }, {
        "fullUrl": "urn:uuid:34de3189-1f87-422e-a677-331ac2ece8f9",
        "resource": {
            "resourceType": "Specimen",
            "id": "34de3189-1f87-422e-a677-331ac2ece8f9",
            "meta": {
                "profile": [ "https://fhir.hl7.org.uk/STU3/StructureDefinition/CareConnect-Specimen-1" ]
            },
            "type": {
                "coding": [ {
                    "system": "http://snomed.info/sct",
                    "display": "Faeces"
                } ]
            },
            "subject": {
                "reference": "urn:uuid:97a04c9d-96b1-4ca8-998c-0ae0e79c07c2"
            }
        }
    }, {
        "fullUrl": "urn:uuid:1c71e5bc-dd6f-4e71-ab57-d042fe06501b",
        "resource": {
            "resourceType": "Observation",
            "id": "1c71e5bc-dd6f-4e71-ab57-d042fe06501b",
            "meta": {
                "profile": [ "https://fhir.hl7.org.uk/STU3/StructureDefinition/CareConnect-Observation-1" ]
            },
            "status": "unknown",
            "code": {
                "coding": [ {
                    "system": "http://snomed.info/sct",
                    "code": "368481000000103",
                    "display": "BCS?:FOB result"
                } ]
            },
            "subject": {
                "reference": "urn:uuid:97a04c9d-96b1-4ca8-998c-0ae0e79c07c2"
            },
            "performer": [ {
                "reference": "urn:uuid:fc9d122b-9fd0-4215-aa19-09ee32e07d44"
            }, {
                "reference": "urn:uuid:8ce53a42-42b7-4ffb-b61f-901362c8696b"
            } ],
            "valueCodeableConcept": {
                "coding": [ {
                    "system": "http://snomed.info/sct",
                    "code": "375211000000108",
                    "display": "Bowel cancer screening programme FOB test normal (finding)"
                } ]
            },
            "comment": "Normal. Sent following an initial single Negative result or following 2 Negative results after an initial Weak Positive",
            "specimen": {
                "reference": "urn:uuid:34de3189-1f87-422e-a677-331ac2ece8f9"
            }
        }
    } ]
}