{
    "resourceType": "Bundle",
    "id": "a114358d-4434-45e7-b98c-3a78578de9cd",
    "meta": {
        "lastUpdated": "2021-05-31T12:47:35.527+01:00",
        "profile": [
            "https://fhir.nhs.uk/STU3/StructureDefinition/ITK-Message-Bundle-1"
        ]
    },
    "identifier": {
        "system": "https://tools.ietf.org/html/rfc4122",
        "value": "4b6b14ce-7bf7-44a4-bd49-5209792d7e14"
    },
    "type": "message",
    "entry": [
        {
            "fullUrl": "urn:uuid:f7f9ea60-7dad-4cd8-b317-d955d1362118",
            "resource": {
                "resourceType": "MessageHeader",
                "id": "f7f9ea60-7dad-4cd8-b317-d955d1362118",
                "meta": {
                    "profile": [
                        "https://fhir.nhs.uk/STU3/StructureDefinition/ITK-MessageHeader-2"
                    ]
                },
                "extension": [
                    {
                        "url": "https://fhir.nhs.uk/STU3/StructureDefinition/Extension-ITK-MessageHandling-2",
                        "extension": [
                            {
                                "url": "BusAckRequested",
                                "valueBoolean": true
                            },
                            {
                                "url": "InfAckRequested",
                                "valueBoolean": true
                            },
                            {
                                "url": "RecipientType",
                                "valueCoding": {
                                    "system": "https://fhir.nhs.uk/STU3/CodeSystem/ITK-RecipientType-1",
                                    "code": "FA",
                                    "display": "For Action"
                                }
                            },
                            {
                                "url": "SenderReference",
                                "valueString": "None"
                            },
                            {
                                "url": "LocalExtension",
                                "valueString": "None"
                            }
                        ]
                    }
                ],
                "event": {
                    "system": "https://fhir.nhs.uk/STU3/CodeSystem/ITK-MessageEvent-2",
                    "code": "ITK012M",
                    "display": "ITK National Pathology"
                },
                "receiver": {
                    "reference": "urn:uuid:a24b5966-7338-4e67-b222-abede9883f92"
                },
                "sender": {
                    "reference": "urn:uuid:c12a1532-936b-441c-87fe-430f64dd6bc0"
                },
                "timestamp": "2009-11-13T15:19:00.000+00:00",
                "source": {
                    "endpoint": "lab_results_mailbox"
                },
                "responsible": {
                    "reference": "urn:uuid:c12a1532-936b-441c-87fe-430f64dd6bc0"
                },
                "focus": [
                    {
                        "reference": "urn:uuid:ca8d8087-db37-4c7d-9851-4d5132119eb4"
                    }
                ]
            }
        },
        {
            "fullUrl": "urn:uuid:5c672226-b55e-44a3-8afb-676fad5089ae",
            "resource": {
                "resourceType": "Patient",
                "id": "5c672226-b55e-44a3-8afb-676fad5089ae",
                "meta": {
                    "profile": [
                        "https://fhir.hl7.org.uk/STU3/StructureDefinition/CareConnect-Patient-1"
                    ]
                },
                "identifier": [
                    {
                        "extension": [
                            {
                                "url": "https://fhir.hl7.org.uk/STU3/StructureDefinition/Extension-CareConnect-NHSNumberVerificationStatus-1",
                                "valueCodeableConcept": {
                                    "coding": [
                                        {
                                            "system": "https://fhir.hl7.org.uk/STU3/CodeSystem/CareConnect-NHSNumberVerificationStatus-1",
                                            "code": "01",
                                            "display": "Number present and verified"
                                        }
                                    ]
                                }
                            }
                        ],
                        "system": "https://fhir.nhs.uk/Id/nhs-number",
                        "value": "8982821201"
                    }
                ],
                "name": [
                    {
                        "use": "official",
                        "family": "GRIMSHAW",
                        "given": [
                            "BRETT"
                        ],
                        "prefix": [
                            "CAPT"
                        ]
                    }
                ],
                "gender": "male",
                "birthDate": "1938-02-06",
                "address": [
                    {
                        "line": [
                            "HIGHWOOD BUNGALOW",
                            "EXETER",
                            "DEVON"
                        ],
                        "postalCode": "TQ14 4QJ"
                    }
                ]
            }
        },
        {
            "fullUrl": "urn:uuid:330943a8-6e2b-4c60-8df2-ca3bd862f133",
            "resource": {
                "resourceType": "Practitioner",
                "id": "330943a8-6e2b-4c60-8df2-ca3bd862f133",
                "meta": {
                    "profile": [
                        "https://fhir.hl7.org.uk/STU3/StructureDefinition/CareConnect-Practitioner-1"
                    ]
                },
                "name": [
                    {
                        "text": "BCSP Hub Manager"
                    }
                ]
            }
        },
        {
            "fullUrl": "urn:uuid:a24b5966-7338-4e67-b222-abede9883f92",
            "resource": {
                "resourceType": "Organization",
                "id": "a24b5966-7338-4e67-b222-abede9883f92",
                "meta": {
                    "profile": [
                        "https://fhir.hl7.org.uk/STU3/StructureDefinition/CareConnect-Organization-1"
                    ]
                }
            }
        },
        {
            "fullUrl": "urn:uuid:525d5d34-63ad-4f50-8e29-d2cfddee3c19",
            "resource": {
                "resourceType": "Practitioner",
                "id": "525d5d34-63ad-4f50-8e29-d2cfddee3c19",
                "meta": {
                    "profile": [
                        "https://fhir.hl7.org.uk/STU3/StructureDefinition/CareConnect-Practitioner-1"
                    ]
                }
            }
        },
        {
            "fullUrl": "urn:uuid:c12a1532-936b-441c-87fe-430f64dd6bc0",
            "resource": {
                "resourceType": "Organization",
                "id": "c12a1532-936b-441c-87fe-430f64dd6bc0",
                "meta": {
                    "profile": [
                        "https://fhir.hl7.org.uk/STU3/StructureDefinition/CareConnect-Organization-1"
                    ]
                },
                "type": [
                    {
                        "coding": [
                            {
                                "code": "dept",
                                "display": "UNKNOWN"
                            }
                        ]
                    }
                ],
                "name": "Southern Bowel Cancer Screening Pro:gramme Hub"
            }
        },
        {
            "fullUrl": "urn:uuid:bb71ab3d-251b-48d3-ad14-4648673e07c6",
            "resource": {
                "resourceType": "ProcedureRequest",
                "id": "bb71ab3d-251b-48d3-ad14-4648673e07c6",
                "meta": {
                    "profile": [
                        "https://fhir.hl7.org.uk/STU3/StructureDefinition/CareConnect-ProcedureRequest-1"
                    ]
                },
                "status": "active",
                "intent": "order",
                "code": {
                    "coding": [
                        {
                            "system": "http://snomed.info/sct",
                            "code": "15220000",
                            "display": "Laboratory test (procedure)"
                        }
                    ]
                },
                "subject": {
                    "reference": "urn:uuid:5c672226-b55e-44a3-8afb-676fad5089ae"
                },
                "requester": {
                    "agent": {
                        "reference": "urn:uuid:330943a8-6e2b-4c60-8df2-ca3bd862f133"
                    },
                    "onBehalfOf": {
                        "reference": "urn:uuid:a24b5966-7338-4e67-b222-abede9883f92"
                    }
                },
                "performer": {
                    "reference": "urn:uuid:525d5d34-63ad-4f50-8e29-d2cfddee3c19"
                }
            }
        },
        {
            "fullUrl": "urn:uuid:ca8d8087-db37-4c7d-9851-4d5132119eb4",
            "resource": {
                "resourceType": "DiagnosticReport",
                "id": "ca8d8087-db37-4c7d-9851-4d5132119eb4",
                "meta": {
                    "profile": [
                        "https://fhir.hl7.org.uk/STU3/StructureDefinition/CareConnect-DiagnosticReport-1"
                    ]
                },
                "identifier": [
                    {
                        "system": "https://tools.ietf.org/html/rfc4122",
                        "value": "34/1"
                    }
                ],
                "basedOn": [
                    {
                        "reference": "urn:uuid:bb71ab3d-251b-48d3-ad14-4648673e07c6"
                    }
                ],
                "status": "unknown",
                "code": {
                    "coding": [
                        {
                            "system": "http://snomed.info/sct",
                            "code": "721981007",
                            "display": "Diagnostic studies report"
                        }
                    ]
                },
                "subject": {
                    "reference": "urn:uuid:5c672226-b55e-44a3-8afb-676fad5089ae"
                },
                "issued": "2009-11-10T11:45:00.000+00:00",
                "performer": [
                    {
                        "actor": {
                            "reference": "urn:uuid:c12a1532-936b-441c-87fe-430f64dd6bc0"
                        }
                    },
                    {
                        "actor": {
                            "reference": "urn:uuid:525d5d34-63ad-4f50-8e29-d2cfddee3c19"
                        }
                    }
                ],
                "specimen": [
                    {
                        "reference": "urn:uuid:30c99b1c-f792-48aa-b142-81d71a94daab"
                    }
                ],
                "result": [
                    {
                        "reference": "urn:uuid:0dbb99bc-9f28-4b5f-ba12-4d68203ecfb5"
                    }
                ]
            }
        },
        {
            "fullUrl": "urn:uuid:30c99b1c-f792-48aa-b142-81d71a94daab",
            "resource": {
                "resourceType": "Specimen",
                "id": "30c99b1c-f792-48aa-b142-81d71a94daab",
                "meta": {
                    "profile": [
                        "https://fhir.hl7.org.uk/STU3/StructureDefinition/CareConnect-Specimen-1"
                    ]
                },
                "type": {
                    "coding": [
                        {
                            "system": "http://snomed.info/sct",
                            "display": "Faeces"
                        }
                    ]
                },
                "subject": {
                    "reference": "urn:uuid:5c672226-b55e-44a3-8afb-676fad5089ae"
                }
            }
        },
        {
            "fullUrl": "urn:uuid:0dbb99bc-9f28-4b5f-ba12-4d68203ecfb5",
            "resource": {
                "resourceType": "Observation",
                "id": "0dbb99bc-9f28-4b5f-ba12-4d68203ecfb5",
                "meta": {
                    "profile": [
                        "https://fhir.hl7.org.uk/STU3/StructureDefinition/CareConnect-Observation-1"
                    ]
                },
                "status": "unknown",
                "code": {
                    "coding": [
                        {
                            "system": "http://snomed.info/sct",
                            "code": "368481000000103",
                            "display": "BCS?:FOB result"
                        }
                    ]
                },
                "subject": {
                    "reference": "urn:uuid:5c672226-b55e-44a3-8afb-676fad5089ae"
                },
                "performer": [
                    {
                        "reference": "urn:uuid:c12a1532-936b-441c-87fe-430f64dd6bc0"
                    },
                    {
                        "reference": "urn:uuid:525d5d34-63ad-4f50-8e29-d2cfddee3c19"
                    }
                ],
                "valueCodeableConcept": {
                    "coding": [
                        {
                            "system": "http://snomed.info/sct",
                            "code": "375211000000108",
                            "display": "Bowel cancer screening programme FOB test normal (finding)"
                        }
                    ]
                },
                "comment": "Normal. Sent following an initial single Negative result or following 2 Negative results after an initial Weak Positive",
                "specimen": {
                    "reference": "urn:uuid:30c99b1c-f792-48aa-b142-81d71a94daab"
                }
            }
        }
    ]
}