{
    "resourceType": "Bundle",
    "id": "7d7ca3f0-484c-487e-86e3-57c71b393669",
    "meta": {
        "lastUpdated": "2021-04-27T13:33:03.319+01:00",
        "profile": [
            "https://fhir.nhs.uk/STU3/StructureDefinition/ITK-Message-Bundle-1"
        ]
    },
    "identifier": {
        "system": "https://tools.ietf.org/html/rfc4122",
        "value": "30effbd6-833c-4aa1-8113-6f312bc321f0"
    },
    "type": "message",
    "entry": [
        {
            "fullUrl": "urn:uuid:1a1207e9-a7f1-41ee-8609-87ad6f90f489",
            "resource": {
                "resourceType": "MessageHeader",
                "id": "1a1207e9-a7f1-41ee-8609-87ad6f90f489",
                "meta": {
                    "profile": [
                        "https://fhir.nhs.uk/STU3/StructureDefinition/ITK-MessageHeader-2"
                    ]
                },
                "extension": [
                    {
                        "url": "https://fhir.nhs.uk/STU3/StructureDefinition/Extension-ITK-MessageHandling-2",
                        "extension": [
                            {
                                "url": "BusAckRequested",
                                "valueBoolean": true
                            },
                            {
                                "url": "InfAckRequested",
                                "valueBoolean": true
                            },
                            {
                                "url": "RecipientType",
                                "valueCoding": {
                                    "system": "https://fhir.nhs.uk/STU3/CodeSystem/ITK-RecipientType-1",
                                    "code": "FA",
                                    "display": "For Action"
                                }
                            },
                            {
                                "url": "SenderReference",
                                "valueString": "None"
                            },
                            {
                                "url": "LocalExtension",
                                "valueString": "None"
                            }
                        ]
                    }
                ],
                "event": {
                    "system": "https://fhir.nhs.uk/STU3/CodeSystem/ITK-MessageEvent-2",
                    "code": "ITK012M",
                    "display": "ITK National Pathology"
                },
                "receiver": {
                    "reference": "urn:uuid:8ad03a92-0feb-4d07-bab9-c614c9555d53"
                },
                "sender": {
                    "reference": "urn:uuid:654e94cc-bebe-4032-9cfe-e3d15991427f"
                },
                "timestamp": "2009-11-13T15:19:00.000+00:00",
                "source": {
                    "endpoint": "lab_results_mailbox"
                },
                "responsible": {
                    "reference": "urn:uuid:654e94cc-bebe-4032-9cfe-e3d15991427f"
                },
                "focus": [
                    {
                        "reference": "urn:uuid:6ded2861-1334-4a23-8a1e-9c069206c3ac"
                    }
                ]
            }
        },
        {
            "fullUrl": "urn:uuid:cbd70653-96e5-4266-98a9-5cc626a94f17",
            "resource": {
                "resourceType": "Patient",
                "id": "cbd70653-96e5-4266-98a9-5cc626a94f17",
                "meta": {
                    "profile": [
                        "https://fhir.hl7.org.uk/STU3/StructureDefinition/CareConnect-Patient-1"
                    ]
                },
                "name": [
                    {
                        "use": "official",
                        "family": "ABLE",
                        "given": [
                            "JEREMIAS"
                        ]
                    }
                ],
                "gender": "male",
                "birthDate": "1915-12-01"
            }
        },
        {
            "fullUrl": "urn:uuid:2c187fe0-f1f5-4d93-8631-72a89ea14c80",
            "resource": {
                "resourceType": "Practitioner",
                "id": "2c187fe0-f1f5-4d93-8631-72a89ea14c80",
                "meta": {
                    "profile": [
                        "https://fhir.hl7.org.uk/STU3/StructureDefinition/CareConnect-Practitioner-1"
                    ]
                },
                "name": [
                    {
                        "text": "BCSP Hub Manager"
                    }
                ]
            }
        },
        {
            "fullUrl": "urn:uuid:8ad03a92-0feb-4d07-bab9-c614c9555d53",
            "resource": {
                "resourceType": "Organization",
                "id": "8ad03a92-0feb-4d07-bab9-c614c9555d53",
                "meta": {
                    "profile": [
                        "https://fhir.hl7.org.uk/STU3/StructureDefinition/CareConnect-Organization-1"
                    ]
                }
            }
        },
        {
            "fullUrl": "urn:uuid:96bb03cb-2c93-488d-91b5-a769bd45762b",
            "resource": {
                "resourceType": "Practitioner",
                "id": "96bb03cb-2c93-488d-91b5-a769bd45762b",
                "meta": {
                    "profile": [
                        "https://fhir.hl7.org.uk/STU3/StructureDefinition/CareConnect-Practitioner-1"
                    ]
                }
            }
        },
        {
            "fullUrl": "urn:uuid:654e94cc-bebe-4032-9cfe-e3d15991427f",
            "resource": {
                "resourceType": "Organization",
                "id": "654e94cc-bebe-4032-9cfe-e3d15991427f",
                "meta": {
                    "profile": [
                        "https://fhir.hl7.org.uk/STU3/StructureDefinition/CareConnect-Organization-1"
                    ]
                },
                "type": [
                    {
                        "coding": [
                            {
                                "code": "dept",
                                "display": "UNKNOWN"
                            }
                        ]
                    }
                ],
                "name": "Southern Bowel Cancer Screening Pro:gramme Hub"
            }
        },
        {
            "fullUrl": "urn:uuid:4ca4507c-6f5e-47c8-b4e2-3704c8cb723d",
            "resource": {
                "resourceType": "ProcedureRequest",
                "id": "4ca4507c-6f5e-47c8-b4e2-3704c8cb723d",
                "meta": {
                    "profile": [
                        "https://fhir.hl7.org.uk/STU3/StructureDefinition/CareConnect-ProcedureRequest-1"
                    ]
                },
                "status": "active",
                "intent": "order",
                "code": {
                    "text": "unknown"
                },
                "subject": {
                    "reference": "urn:uuid:cbd70653-96e5-4266-98a9-5cc626a94f17"
                },
                "requester": {
                    "agent": {
                        "reference": "urn:uuid:2c187fe0-f1f5-4d93-8631-72a89ea14c80"
                    },
                    "onBehalfOf": {
                        "reference": "urn:uuid:8ad03a92-0feb-4d07-bab9-c614c9555d53"
                    }
                },
                "performer": {
                    "reference": "urn:uuid:96bb03cb-2c93-488d-91b5-a769bd45762b"
                }
            }
        },
        {
            "fullUrl": "urn:uuid:6ded2861-1334-4a23-8a1e-9c069206c3ac",
            "resource": {
                "resourceType": "DiagnosticReport",
                "id": "6ded2861-1334-4a23-8a1e-9c069206c3ac",
                "meta": {
                    "profile": [
                        "https://fhir.hl7.org.uk/STU3/StructureDefinition/CareConnect-DiagnosticReport-1"
                    ]
                },
                "identifier": [
                    {
                        "system": "https://tools.ietf.org/html/rfc4122",
                        "value": "34/1"
                    }
                ],
                "basedOn": [
                    {
                        "reference": "urn:uuid:4ca4507c-6f5e-47c8-b4e2-3704c8cb723d"
                    }
                ],
                "status": "unknown",
                "code": {
                    "coding": [
                        {
                            "system": "http://snomed.info/sct",
                            "code": "721981007",
                            "display": "Diagnostic studies report"
                        }
                    ]
                },
                "subject": {
                    "reference": "urn:uuid:cbd70653-96e5-4266-98a9-5cc626a94f17"
                },
                "issued": "2009-11-10T11:45:00.000+00:00",
                "performer": [
                    {
                        "actor": {
                            "reference": "urn:uuid:654e94cc-bebe-4032-9cfe-e3d15991427f"
                        }
                    },
                    {
                        "actor": {
                            "reference": "urn:uuid:96bb03cb-2c93-488d-91b5-a769bd45762b"
                        }
                    }
                ],
                "specimen": [
                    {
                        "reference": "urn:uuid:f36dc0a3-461a-4990-9f4a-30f13251efa4"
                    }
                ],
                "result": [
                    {
                        "reference": "urn:uuid:17a2ea90-50eb-4a93-b095-93ce2880bc25"
                    }
                ]
            }
        },
        {
            "fullUrl": "urn:uuid:f36dc0a3-461a-4990-9f4a-30f13251efa4",
            "resource": {
                "resourceType": "Specimen",
                "id": "f36dc0a3-461a-4990-9f4a-30f13251efa4",
                "meta": {
                    "profile": [
                        "https://fhir.hl7.org.uk/STU3/StructureDefinition/CareConnect-Specimen-1"
                    ]
                },
                "type": {
                    "coding": [
                        {
                            "system": "http://snomed.info/sct",
                            "display": "Faeces"
                        }
                    ]
                },
                "subject": {
                    "reference": "urn:uuid:cbd70653-96e5-4266-98a9-5cc626a94f17"
                }
            }
        },
        {
            "fullUrl": "urn:uuid:17a2ea90-50eb-4a93-b095-93ce2880bc25",
            "resource": {
                "resourceType": "Observation",
                "id": "17a2ea90-50eb-4a93-b095-93ce2880bc25",
                "meta": {
                    "profile": [
                        "https://fhir.hl7.org.uk/STU3/StructureDefinition/CareConnect-Observation-1"
                    ]
                },
                "status": "unknown",
                "code": {
                    "coding": [
                        {
                            "system": "http://snomed.info/sct",
                            "code": "884521000000106",
                            "display": "BCSP bowel scope screen test"
                        }
                    ]
                },
                "subject": {
                    "reference": "urn:uuid:cbd70653-96e5-4266-98a9-5cc626a94f17"
                },
                "performer": [
                    {
                        "reference": "urn:uuid:654e94cc-bebe-4032-9cfe-e3d15991427f"
                    },
                    {
                        "reference": "urn:uuid:96bb03cb-2c93-488d-91b5-a769bd45762b"
                    }
                ],
                "valueCodeableConcept": {
                    "coding": [
                        {
                            "system": "http://snomed.info/sct",
                            "code": "884541000000104",
                            "display": "Bowel scope (flexi-sig) screen?: normal - no further action"
                        }
                    ]
                },
                "specimen": {
                    "reference": "urn:uuid:f36dc0a3-461a-4990-9f4a-30f13251efa4"
                }
            }
        }
    ]
}