{
  "resourceType": "Bundle",
  "id": "7189a495-a42e-4050-9f3d-231094035d9d",
  "meta": {
    "lastUpdated": "2021-03-17T09:18:08.879+00:00",
    "profile": [
      "https://fhir.nhs.uk/STU3/StructureDefinition/ITK-Message-Bundle-1"
    ]
  },
  "identifier": {
    "system": "https://tools.ietf.org/html/rfc4122",
    "value": "108bc7f1-b929-447f-9bb3-5ba930ebf05d"
  },
  "type": "message",
  "entry": [
    {
      "fullUrl": "urn:uuid:7ec55442-b603-42d5-be26-6278ec19a4e6",
      "resource": {
        "resourceType": "Patient",
        "id": "7ec55442-b603-42d5-be26-6278ec19a4e6",
        "identifier": [
          {
            "system": "https://fhir.nhs.uk/Id/nhs-number"
          }
        ],
        "name": [
          {
            "family": "ABLE",
            "given": [
              "JEREMIAS"
            ]
          }
        ],
        "gender": "male",
        "birthDate": "1915-12-01"
      }
    },
    {
      "fullUrl": "urn:uuid:d2a0da67-8d35-450a-bf29-19138edc06be",
      "resource": {
        "resourceType": "Practitioner",
        "id": "d2a0da67-8d35-450a-bf29-19138edc06be",
        "name": [
          {
            "text": "BCSP Hub Manager"
          }
        ]
      }
    },
    {
      "fullUrl": "urn:uuid:96ebe70e-0ee6-47aa-bcf1-63da0fef91c8",
      "resource": {
        "resourceType": "Organization",
        "id": "96ebe70e-0ee6-47aa-bcf1-63da0fef91c8",
        "type": [
          {
            "coding": [
              {
                "code": "dept",
                "display": "UNKNOWN"
              }
            ]
          }
        ],
        "name": "Southern Bowel Cancer Screening Pro:gramme Hub"
      }
    },
    {
      "fullUrl": "urn:uuid:47dfb6a5-12e2-47a8-b057-b36ae501801e",
      "resource": {
        "resourceType": "DiagnosticReport",
        "id": "47dfb6a5-12e2-47a8-b057-b36ae501801e",
        "identifier": [
          {
            "value": "34/1"
          }
        ],
        "status": "unknown",
        "code": {
          "coding": [
            {
              "system": "http://snomed.info/sct",
              "code": "721981007",
              "display": "Diagnostic studies report"
            }
          ]
        },
        "subject": {
          "reference": "urn:uuid:7ec55442-b603-42d5-be26-6278ec19a4e6"
        },
        "issued": "2009-11-10T11:45:00.000+00:00",
        "performer": [
          {
            "actor": {
              "reference": "urn:uuid:96ebe70e-0ee6-47aa-bcf1-63da0fef91c8"
            }
          }
        ],
        "specimen": [
          {
            "reference": "urn:uuid:4c8e850b-0cd6-45c5-999b-0809b45371f7"
          }
        ],
        "result": [
          {
            "reference": "urn:uuid:2e57cea3-06d8-4bfd-a9cd-d9bc66dc192e"
          }
        ]
      }
    },
    {
      "fullUrl": "urn:uuid:4c8e850b-0cd6-45c5-999b-0809b45371f7",
      "resource": {
        "resourceType": "Specimen",
        "id": "4c8e850b-0cd6-45c5-999b-0809b45371f7",
        "type": {
          "coding": [
            {
              "system": "http://snomed.info/sct",
              "display": "Faeces"
            }
          ]
        },
        "subject": {
          "reference": "urn:uuid:7ec55442-b603-42d5-be26-6278ec19a4e6"
        }
      }
    },
    {
      "fullUrl": "urn:uuid:2e57cea3-06d8-4bfd-a9cd-d9bc66dc192e",
      "resource": {
        "resourceType": "Observation",
        "id": "2e57cea3-06d8-4bfd-a9cd-d9bc66dc192e",
        "status": "unknown",
        "code": {
          "coding": [
            {
              "system": "http://snomed.info/sct",
              "code": "368481000000103",
              "display": "BCS?:FOB result"
            }
          ]
        },
        "subject": {
          "reference": "urn:uuid:7ec55442-b603-42d5-be26-6278ec19a4e6"
        },
        "performer": [
          {
            "reference": "urn:uuid:96ebe70e-0ee6-47aa-bcf1-63da0fef91c8"
          }
        ],
        "valueCodeableConcept": {
          "coding": [
            {
              "system": "http://snomed.info/sct",
              "code": "384241000000100",
              "display": "Bowel cancer screening prog FOB tst incomplete participation (finding)"
            }
          ]
        },
        "specimen": {
          "reference": "urn:uuid:4c8e850b-0cd6-45c5-999b-0809b45371f7"
        }
      }
    }
  ]
}