{
    "resourceType": "Bundle",
    "id": "f309f144-511b-4e24-ad77-389e7b8a59f2",
    "meta": {
        "lastUpdated": "2021-04-27T13:32:50.894+01:00",
        "profile": [
            "https://fhir.nhs.uk/STU3/StructureDefinition/ITK-Message-Bundle-1"
        ]
    },
    "identifier": {
        "system": "https://tools.ietf.org/html/rfc4122",
        "value": "ae34ac46-a718-4bfa-abd6-f1a00678fa15"
    },
    "type": "message",
    "entry": [
        {
            "fullUrl": "urn:uuid:a1280370-9745-46aa-858b-78777a1560bd",
            "resource": {
                "resourceType": "MessageHeader",
                "id": "a1280370-9745-46aa-858b-78777a1560bd",
                "meta": {
                    "profile": [
                        "https://fhir.nhs.uk/STU3/StructureDefinition/ITK-MessageHeader-2"
                    ]
                },
                "extension": [
                    {
                        "url": "https://fhir.nhs.uk/STU3/StructureDefinition/Extension-ITK-MessageHandling-2",
                        "extension": [
                            {
                                "url": "BusAckRequested",
                                "valueBoolean": true
                            },
                            {
                                "url": "InfAckRequested",
                                "valueBoolean": true
                            },
                            {
                                "url": "RecipientType",
                                "valueCoding": {
                                    "system": "https://fhir.nhs.uk/STU3/CodeSystem/ITK-RecipientType-1",
                                    "code": "FA",
                                    "display": "For Action"
                                }
                            },
                            {
                                "url": "SenderReference",
                                "valueString": "None"
                            },
                            {
                                "url": "LocalExtension",
                                "valueString": "None"
                            }
                        ]
                    }
                ],
                "event": {
                    "system": "https://fhir.nhs.uk/STU3/CodeSystem/ITK-MessageEvent-2",
                    "code": "ITK012M",
                    "display": "ITK National Pathology"
                },
                "receiver": {
                    "reference": "urn:uuid:9ecb0ada-6d48-47f2-84e0-3942481aafca"
                },
                "sender": {
                    "reference": "urn:uuid:47e7593b-d01b-43a7-9fee-8fbba7eeb3d4"
                },
                "timestamp": "2009-11-13T15:19:00.000+00:00",
                "source": {
                    "endpoint": "lab_results_mailbox"
                },
                "responsible": {
                    "reference": "urn:uuid:47e7593b-d01b-43a7-9fee-8fbba7eeb3d4"
                },
                "focus": [
                    {
                        "reference": "urn:uuid:1f537413-8983-4843-bf99-2f42c7ff05e7"
                    }
                ]
            }
        },
        {
            "fullUrl": "urn:uuid:c84e4d4f-41c7-491d-98d1-6cbb45ebd3ab",
            "resource": {
                "resourceType": "Patient",
                "id": "c84e4d4f-41c7-491d-98d1-6cbb45ebd3ab",
                "meta": {
                    "profile": [
                        "https://fhir.hl7.org.uk/STU3/StructureDefinition/CareConnect-Patient-1"
                    ]
                },
                "identifier": [
                    {
                        "extension": [
                            {
                                "url": "https://fhir.hl7.org.uk/STU3/StructureDefinition/Extension-CareConnect-NHSNumberVerificationStatus-1",
                                "valueCodeableConcept": {
                                    "coding": [
                                        {
                                            "system": "https://fhir.hl7.org.uk/STU3/CodeSystem/CareConnect-NHSNumberVerificationStatus-1",
                                            "code": "01",
                                            "display": "Number present and verified"
                                        }
                                    ]
                                }
                            }
                        ],
                        "system": "https://fhir.nhs.uk/Id/nhs-number",
                        "value": "8982821201"
                    }
                ],
                "name": [
                    {
                        "use": "official",
                        "family": "GRIMSHAW",
                        "given": [
                            "BRETT"
                        ],
                        "prefix": [
                            "CAPT"
                        ]
                    }
                ],
                "gender": "male",
                "birthDate": "1938-02-06",
                "address": [
                    {
                        "line": [
                            "HIGHWOOD BUNGALOW",
                            "EXETER",
                            "DEVON"
                        ],
                        "postalCode": "TQ14 4QJ"
                    }
                ]
            }
        },
        {
            "fullUrl": "urn:uuid:6f3ba439-c21d-4429-abf1-571b3f07fdc1",
            "resource": {
                "resourceType": "Practitioner",
                "id": "6f3ba439-c21d-4429-abf1-571b3f07fdc1",
                "meta": {
                    "profile": [
                        "https://fhir.hl7.org.uk/STU3/StructureDefinition/CareConnect-Practitioner-1"
                    ]
                },
                "name": [
                    {
                        "text": "BCSP Hub Manager"
                    }
                ]
            }
        },
        {
            "fullUrl": "urn:uuid:9ecb0ada-6d48-47f2-84e0-3942481aafca",
            "resource": {
                "resourceType": "Organization",
                "id": "9ecb0ada-6d48-47f2-84e0-3942481aafca",
                "meta": {
                    "profile": [
                        "https://fhir.hl7.org.uk/STU3/StructureDefinition/CareConnect-Organization-1"
                    ]
                }
            }
        },
        {
            "fullUrl": "urn:uuid:3ec836b2-93bb-44c6-8892-f61dc0a99cbb",
            "resource": {
                "resourceType": "Practitioner",
                "id": "3ec836b2-93bb-44c6-8892-f61dc0a99cbb",
                "meta": {
                    "profile": [
                        "https://fhir.hl7.org.uk/STU3/StructureDefinition/CareConnect-Practitioner-1"
                    ]
                }
            }
        },
        {
            "fullUrl": "urn:uuid:47e7593b-d01b-43a7-9fee-8fbba7eeb3d4",
            "resource": {
                "resourceType": "Organization",
                "id": "47e7593b-d01b-43a7-9fee-8fbba7eeb3d4",
                "meta": {
                    "profile": [
                        "https://fhir.hl7.org.uk/STU3/StructureDefinition/CareConnect-Organization-1"
                    ]
                },
                "type": [
                    {
                        "coding": [
                            {
                                "code": "dept",
                                "display": "UNKNOWN"
                            }
                        ]
                    }
                ],
                "name": "Southern Bowel Cancer Screening Pro:gramme Hub"
            }
        },
        {
            "fullUrl": "urn:uuid:99a96074-fd34-4be6-b5bd-a2e8754d9a4e",
            "resource": {
                "resourceType": "ProcedureRequest",
                "id": "99a96074-fd34-4be6-b5bd-a2e8754d9a4e",
                "meta": {
                    "profile": [
                        "https://fhir.hl7.org.uk/STU3/StructureDefinition/CareConnect-ProcedureRequest-1"
                    ]
                },
                "status": "active",
                "intent": "order",
                "code": {
                    "text": "unknown"
                },
                "subject": {
                    "reference": "urn:uuid:c84e4d4f-41c7-491d-98d1-6cbb45ebd3ab"
                },
                "requester": {
                    "agent": {
                        "reference": "urn:uuid:6f3ba439-c21d-4429-abf1-571b3f07fdc1"
                    },
                    "onBehalfOf": {
                        "reference": "urn:uuid:9ecb0ada-6d48-47f2-84e0-3942481aafca"
                    }
                },
                "performer": {
                    "reference": "urn:uuid:3ec836b2-93bb-44c6-8892-f61dc0a99cbb"
                }
            }
        },
        {
            "fullUrl": "urn:uuid:1f537413-8983-4843-bf99-2f42c7ff05e7",
            "resource": {
                "resourceType": "DiagnosticReport",
                "id": "1f537413-8983-4843-bf99-2f42c7ff05e7",
                "meta": {
                    "profile": [
                        "https://fhir.hl7.org.uk/STU3/StructureDefinition/CareConnect-DiagnosticReport-1"
                    ]
                },
                "identifier": [
                    {
                        "system": "https://tools.ietf.org/html/rfc4122",
                        "value": "34/1"
                    }
                ],
                "basedOn": [
                    {
                        "reference": "urn:uuid:99a96074-fd34-4be6-b5bd-a2e8754d9a4e"
                    }
                ],
                "status": "unknown",
                "code": {
                    "coding": [
                        {
                            "system": "http://snomed.info/sct",
                            "code": "721981007",
                            "display": "Diagnostic studies report"
                        }
                    ]
                },
                "subject": {
                    "reference": "urn:uuid:c84e4d4f-41c7-491d-98d1-6cbb45ebd3ab"
                },
                "issued": "2009-11-10T11:45:00.000+00:00",
                "performer": [
                    {
                        "actor": {
                            "reference": "urn:uuid:47e7593b-d01b-43a7-9fee-8fbba7eeb3d4"
                        }
                    },
                    {
                        "actor": {
                            "reference": "urn:uuid:3ec836b2-93bb-44c6-8892-f61dc0a99cbb"
                        }
                    }
                ],
                "specimen": [
                    {
                        "reference": "urn:uuid:88fc0ccf-e902-4dfe-91be-0c95cf9529b3"
                    }
                ],
                "result": [
                    {
                        "reference": "urn:uuid:270de1f7-9fcc-4c57-8c7a-22e952699d15"
                    }
                ]
            }
        },
        {
            "fullUrl": "urn:uuid:88fc0ccf-e902-4dfe-91be-0c95cf9529b3",
            "resource": {
                "resourceType": "Specimen",
                "id": "88fc0ccf-e902-4dfe-91be-0c95cf9529b3",
                "meta": {
                    "profile": [
                        "https://fhir.hl7.org.uk/STU3/StructureDefinition/CareConnect-Specimen-1"
                    ]
                },
                "type": {
                    "coding": [
                        {
                            "system": "http://snomed.info/sct",
                            "display": "Faeces"
                        }
                    ]
                },
                "subject": {
                    "reference": "urn:uuid:c84e4d4f-41c7-491d-98d1-6cbb45ebd3ab"
                }
            }
        },
        {
            "fullUrl": "urn:uuid:270de1f7-9fcc-4c57-8c7a-22e952699d15",
            "resource": {
                "resourceType": "Observation",
                "id": "270de1f7-9fcc-4c57-8c7a-22e952699d15",
                "meta": {
                    "profile": [
                        "https://fhir.hl7.org.uk/STU3/StructureDefinition/CareConnect-Observation-1"
                    ]
                },
                "status": "unknown",
                "code": {
                    "coding": [
                        {
                            "system": "http://snomed.info/sct",
                            "code": "368481000000103",
                            "display": "BCS?:FOB result"
                        }
                    ]
                },
                "subject": {
                    "reference": "urn:uuid:c84e4d4f-41c7-491d-98d1-6cbb45ebd3ab"
                },
                "performer": [
                    {
                        "reference": "urn:uuid:47e7593b-d01b-43a7-9fee-8fbba7eeb3d4"
                    },
                    {
                        "reference": "urn:uuid:3ec836b2-93bb-44c6-8892-f61dc0a99cbb"
                    }
                ],
                "valueCodeableConcept": {
                    "coding": [
                        {
                            "system": "http://snomed.info/sct",
                            "code": "375211000000108",
                            "display": "Bowel cancer screening programme FOB test normal (finding)"
                        }
                    ]
                },
                "comment": "Normal. Sent following an initial single Negative result or following 2 Negative results after an initial Weak Positive",
                "specimen": {
                    "reference": "urn:uuid:88fc0ccf-e902-4dfe-91be-0c95cf9529b3"
                }
            }
        }
    ]
}