{
    "resourceType": "Bundle",
    "id": "76156a80-973f-45e7-9ed4-0ff45e0aa684",
    "meta": {
        "lastUpdated": "2021-06-28T16:12:54.522+01:00",
        "profile": [
            "https://fhir.nhs.uk/STU3/StructureDefinition/ITK-Message-Bundle-1"
        ]
    },
    "identifier": {
        "system": "https://tools.ietf.org/html/rfc4122",
        "value": "7f141cdf-f193-4819-83be-17858fddd6d5"
    },
    "type": "message",
    "entry": [
        {
            "fullUrl": "urn:uuid:6c8223af-5386-48a7-81ed-c114a08b708e",
            "resource": {
                "resourceType": "MessageHeader",
                "id": "6c8223af-5386-48a7-81ed-c114a08b708e",
                "meta": {
                    "profile": [
                        "https://fhir.nhs.uk/STU3/StructureDefinition/ITK-MessageHeader-2"
                    ]
                },
                "extension": [
                    {
                        "url": "https://fhir.nhs.uk/STU3/StructureDefinition/Extension-ITK-MessageHandling-2",
                        "extension": [
                            {
                                "url": "BusAckRequested",
                                "valueBoolean": true
                            },
                            {
                                "url": "InfAckRequested",
                                "valueBoolean": true
                            },
                            {
                                "url": "RecipientType",
                                "valueCoding": {
                                    "system": "https://fhir.nhs.uk/STU3/CodeSystem/ITK-RecipientType-1",
                                    "code": "FA",
                                    "display": "For Action"
                                }
                            },
                            {
                                "url": "SenderReference",
                                "valueString": "None"
                            },
                            {
                                "url": "LocalExtension",
                                "valueString": "None"
                            }
                        ]
                    }
                ],
                "event": {
                    "system": "https://fhir.nhs.uk/STU3/CodeSystem/ITK-MessageEvent-2",
                    "code": "ITK012M",
                    "display": "ITK National Pathology"
                },
                "receiver": {
                    "reference": "urn:uuid:69f3452a-ce14-4538-b9c1-7bd6824df905"
                },
                "sender": {
                    "reference": "urn:uuid:34e6eff5-f47d-4f84-adcf-114370bcec1b"
                },
                "timestamp": "2009-11-13T15:19:00.000+00:00",
                "source": {
                    "endpoint": "lab_results_mailbox"
                },
                "responsible": {
                    "reference": "urn:uuid:34e6eff5-f47d-4f84-adcf-114370bcec1b"
                },
                "focus": [
                    {
                        "reference": "urn:uuid:519ecce1-d787-40b0-a8b1-f7b5d783319c"
                    }
                ]
            }
        },
        {
            "fullUrl": "urn:uuid:e0f85ecd-c3ea-40ce-8491-6d85dc662e9e",
            "resource": {
                "resourceType": "Patient",
                "id": "e0f85ecd-c3ea-40ce-8491-6d85dc662e9e",
                "meta": {
                    "profile": [
                        "https://fhir.hl7.org.uk/STU3/StructureDefinition/CareConnect-Patient-1"
                    ]
                },
                "name": [
                    {
                        "use": "official",
                        "family": "EL-ASSAN",
                        "given": [
                            "HABIB"
                        ]
                    }
                ],
                "gender": "male",
                "birthDate": "1957-01-16",
                "address": [
                    {
                        "line": [
                            "HIGHWOOD BUNGALOW",
                            "EXETER",
                            "DEVON"
                        ],
                        "postalCode": "TQ14 4QJ"
                    }
                ]
            }
        },
        {
            "fullUrl": "urn:uuid:36050db4-ece2-46c0-925d-3422a7a45f0e",
            "resource": {
                "resourceType": "Practitioner",
                "id": "36050db4-ece2-46c0-925d-3422a7a45f0e",
                "meta": {
                    "profile": [
                        "https://fhir.hl7.org.uk/STU3/StructureDefinition/CareConnect-Practitioner-1"
                    ]
                },
                "name": [
                    {
                        "text": "BCSP Hub Manager"
                    }
                ]
            }
        },
        {
            "fullUrl": "urn:uuid:69f3452a-ce14-4538-b9c1-7bd6824df905",
            "resource": {
                "resourceType": "Organization",
                "id": "69f3452a-ce14-4538-b9c1-7bd6824df905",
                "meta": {
                    "profile": [
                        "https://fhir.hl7.org.uk/STU3/StructureDefinition/CareConnect-Organization-1"
                    ]
                }
            }
        },
        {
            "fullUrl": "urn:uuid:2efcbdfc-6a17-4049-8dd0-18f0a4e46946",
            "resource": {
                "resourceType": "Practitioner",
                "id": "2efcbdfc-6a17-4049-8dd0-18f0a4e46946",
                "meta": {
                    "profile": [
                        "https://fhir.hl7.org.uk/STU3/StructureDefinition/CareConnect-Practitioner-1"
                    ]
                }
            }
        },
        {
            "fullUrl": "urn:uuid:34e6eff5-f47d-4f84-adcf-114370bcec1b",
            "resource": {
                "resourceType": "Organization",
                "id": "34e6eff5-f47d-4f84-adcf-114370bcec1b",
                "meta": {
                    "profile": [
                        "https://fhir.hl7.org.uk/STU3/StructureDefinition/CareConnect-Organization-1"
                    ]
                },
                "type": [
                    {
                        "coding": [
                            {
                                "code": "dept",
                                "display": "UNKNOWN"
                            }
                        ]
                    }
                ],
                "name": "Southern Bowel Cancer Screening Pro:gramme Hub"
            }
        },
        {
            "fullUrl": "urn:uuid:be714952-4486-4c0f-bfd3-cb8f97d8fa4d",
            "resource": {
                "resourceType": "ProcedureRequest",
                "id": "be714952-4486-4c0f-bfd3-cb8f97d8fa4d",
                "meta": {
                    "profile": [
                        "https://fhir.hl7.org.uk/STU3/StructureDefinition/CareConnect-ProcedureRequest-1"
                    ]
                },
                "status": "active",
                "intent": "order",
                "code": {
                    "coding": [
                        {
                            "system": "http://snomed.info/sct",
                            "code": "15220000",
                            "display": "Laboratory test (procedure)"
                        }
                    ]
                },
                "subject": {
                    "reference": "urn:uuid:e0f85ecd-c3ea-40ce-8491-6d85dc662e9e"
                },
                "requester": {
                    "agent": {
                        "reference": "urn:uuid:36050db4-ece2-46c0-925d-3422a7a45f0e"
                    },
                    "onBehalfOf": {
                        "reference": "urn:uuid:69f3452a-ce14-4538-b9c1-7bd6824df905"
                    }
                },
                "performer": {
                    "reference": "urn:uuid:2efcbdfc-6a17-4049-8dd0-18f0a4e46946"
                }
            }
        },
        {
            "fullUrl": "urn:uuid:519ecce1-d787-40b0-a8b1-f7b5d783319c",
            "resource": {
                "resourceType": "DiagnosticReport",
                "id": "519ecce1-d787-40b0-a8b1-f7b5d783319c",
                "meta": {
                    "profile": [
                        "https://fhir.hl7.org.uk/STU3/StructureDefinition/CareConnect-DiagnosticReport-1"
                    ]
                },
                "identifier": [
                    {
                        "system": "https://tools.ietf.org/html/rfc4122",
                        "value": "34/1"
                    }
                ],
                "basedOn": [
                    {
                        "reference": "urn:uuid:be714952-4486-4c0f-bfd3-cb8f97d8fa4d"
                    }
                ],
                "status": "unknown",
                "code": {
                    "coding": [
                        {
                            "system": "http://snomed.info/sct",
                            "code": "721981007",
                            "display": "Diagnostic studies report"
                        }
                    ]
                },
                "subject": {
                    "reference": "urn:uuid:e0f85ecd-c3ea-40ce-8491-6d85dc662e9e"
                },
                "issued": "2009-11-10T11:45:00.000+00:00",
                "performer": [
                    {
                        "actor": {
                            "reference": "urn:uuid:34e6eff5-f47d-4f84-adcf-114370bcec1b"
                        }
                    },
                    {
                        "actor": {
                            "reference": "urn:uuid:2efcbdfc-6a17-4049-8dd0-18f0a4e46946"
                        }
                    }
                ],
                "specimen": [
                    {
                        "reference": "urn:uuid:16fa8033-2d74-4a52-acd4-01bf2c6a918e"
                    }
                ],
                "result": [
                    {
                        "reference": "urn:uuid:fc0344f8-60e3-47cd-8fab-9aa8fe964851"
                    }
                ]
            }
        },
        {
            "fullUrl": "urn:uuid:16fa8033-2d74-4a52-acd4-01bf2c6a918e",
            "resource": {
                "resourceType": "Specimen",
                "id": "16fa8033-2d74-4a52-acd4-01bf2c6a918e",
                "meta": {
                    "profile": [
                        "https://fhir.hl7.org.uk/STU3/StructureDefinition/CareConnect-Specimen-1"
                    ]
                },
                "type": {
                    "coding": [
                        {
                            "display": "Faeces"
                        }
                    ]
                },
                "subject": {
                    "reference": "urn:uuid:e0f85ecd-c3ea-40ce-8491-6d85dc662e9e"
                }
            }
        },
        {
            "fullUrl": "urn:uuid:fc0344f8-60e3-47cd-8fab-9aa8fe964851",
            "resource": {
                "resourceType": "Observation",
                "id": "fc0344f8-60e3-47cd-8fab-9aa8fe964851",
                "meta": {
                    "profile": [
                        "https://fhir.hl7.org.uk/STU3/StructureDefinition/CareConnect-Observation-1"
                    ]
                },
                "status": "unknown",
                "code": {
                    "coding": [
                        {
                            "system": "http://read.info/readv2",
                            "display": "Bowel cancer screening result"
                        }
                    ]
                },
                "subject": {
                    "reference": "urn:uuid:e0f85ecd-c3ea-40ce-8491-6d85dc662e9e"
                },
                "performer": [
                    {
                        "reference": "urn:uuid:34e6eff5-f47d-4f84-adcf-114370bcec1b"
                    },
                    {
                        "reference": "urn:uuid:2efcbdfc-6a17-4049-8dd0-18f0a4e46946"
                    }
                ],
                "valueCodeableConcept": {
                    "coding": [
                        {
                            "system": "http://snomed.info/sct",
                            "code": "375211000000108",
                            "display": "Bowel cancer screening programme FOB test normal (finding)"
                        }
                    ]
                },
                "comment": "Normal. Sent following an initial single Negative result or following 2 Negative results after an initial Weak Positive",
                "specimen": {
                    "reference": "urn:uuid:16fa8033-2d74-4a52-acd4-01bf2c6a918e"
                }
            }
        }
    ]
}