{
    "resourceType": "Bundle",
    "id": "5c3ee7cc-137f-47e0-accf-b57925447b19",
    "meta": {
        "lastUpdated": "2021-04-22T14:11:37.011+02:00",
        "profile": [
            "https://fhir.nhs.uk/STU3/StructureDefinition/ITK-Message-Bundle-1"
        ]
    },
    "identifier": {
        "system": "https://tools.ietf.org/html/rfc4122",
        "value": "a2c1916f-04f7-462e-9544-fefee8c6e683"
    },
    "type": "message",
    "entry": [
        {
            "fullUrl": "urn:uuid:5ef16388-76fc-4662-826f-bf398a345c7a",
            "resource": {
                "resourceType": "MessageHeader",
                "id": "5ef16388-76fc-4662-826f-bf398a345c7a",
                "meta": {
                    "profile": [
                        "https://fhir.nhs.uk/STU3/StructureDefinition/ITK-MessageHeader-2"
                    ]
                },
                "extension": [
                    {
                        "url": "https://fhir.nhs.uk/STU3/StructureDefinition/Extension-ITK-MessageHandling-2",
                        "extension": [
                            {
                                "url": "BusAckRequested",
                                "valueBoolean": true
                            },
                            {
                                "url": "InfAckRequested",
                                "valueBoolean": true
                            },
                            {
                                "url": "RecipientType",
                                "valueCoding": {
                                    "system": "https://fhir.nhs.uk/STU3/CodeSystem/ITK-RecipientType-1",
                                    "code": "FA",
                                    "display": "For Action"
                                }
                            },
                            {
                                "url": "SenderReference",
                                "valueString": "None"
                            },
                            {
                                "url": "LocalExtension",
                                "valueString": "None"
                            }
                        ]
                    }
                ],
                "event": {
                    "system": "https://fhir.nhs.uk/STU3/CodeSystem/ITK-MessageEvent-2",
                    "code": "ITK012M",
                    "display": "ITK National Pathology"
                },
                "receiver": {
                    "reference": "urn:uuid:a03346bd-fdd4-4883-b1fa-339f283ac8eb"
                },
                "sender": {
                    "reference": "urn:uuid:b6204247-55c2-44cf-8f27-d7c0bb872eb5"
                },
                "source": {
                    "endpoint": "lab_results_mailbox"
                },
                "responsible": {
                    "reference": "urn:uuid:b6204247-55c2-44cf-8f27-d7c0bb872eb5"
                },
                "focus": [
                    {
                        "reference": "urn:uuid:1847ee61-d2ca-4194-9fa3-6ed68b38080d"
                    }
                ]
            }
        },
        {
            "fullUrl": "urn:uuid:5932f546-edca-4521-bfd7-bfb8ec9e88f2",
            "resource": {
                "resourceType": "Patient",
                "id": "5932f546-edca-4521-bfd7-bfb8ec9e88f2",
                "meta": {
                    "profile": [
                        "https://fhir.hl7.org.uk/STU3/StructureDefinition/CareConnect-Patient-1"
                    ]
                },
                "identifier": [
                    {
                        "system": "https://fhir.nhs.uk/Id/nhs-number",
                        "value": "9435468969"
                    }
                ],
                "name": [
                    {
                        "family": "VIVATMA",
                        "given": [
                            "SHARADA"
                        ]
                    }
                ],
                "gender": "female",
                "birthDate": "1914-03-08",
                "address": [
                    {
                        "line": [
                            "HIGHWOOD BUNGALOW",
                            "EXETER",
                            "DEVON"
                        ],
                        "postalCode": "TQ14 4QJ"
                    }
                ]
            }
        },
        {
            "fullUrl": "urn:uuid:53c3ed88-482d-4112-becc-2b89b5b0ee8e",
            "resource": {
                "resourceType": "Practitioner",
                "id": "53c3ed88-482d-4112-becc-2b89b5b0ee8e",
                "meta": {
                    "profile": [
                        "https://fhir.hl7.org.uk/STU3/StructureDefinition/CareConnect-Practitioner-1"
                    ]
                },
                "name": [
                    {
                        "text": "BCSP Hub Manager"
                    }
                ]
            }
        },
        {
            "fullUrl": "urn:uuid:a03346bd-fdd4-4883-b1fa-339f283ac8eb",
            "resource": {
                "resourceType": "Organization",
                "id": "a03346bd-fdd4-4883-b1fa-339f283ac8eb",
                "meta": {
                    "profile": [
                        "https://fhir.hl7.org.uk/STU3/StructureDefinition/CareConnect-Organization-1"
                    ]
                }
            }
        },
        {
            "fullUrl": "urn:uuid:ef8ebd08-841d-4d6e-8a99-d84632f3b696",
            "resource": {
                "resourceType": "Practitioner",
                "id": "ef8ebd08-841d-4d6e-8a99-d84632f3b696",
                "meta": {
                    "profile": [
                        "https://fhir.hl7.org.uk/STU3/StructureDefinition/CareConnect-Practitioner-1"
                    ]
                }
            }
        },
        {
            "fullUrl": "urn:uuid:b6204247-55c2-44cf-8f27-d7c0bb872eb5",
            "resource": {
                "resourceType": "Organization",
                "id": "b6204247-55c2-44cf-8f27-d7c0bb872eb5",
                "meta": {
                    "profile": [
                        "https://fhir.hl7.org.uk/STU3/StructureDefinition/CareConnect-Organization-1"
                    ]
                },
                "type": [
                    {
                        "coding": [
                            {
                                "code": "dept",
                                "display": "UNKNOWN"
                            }
                        ]
                    }
                ],
                "name": "Southern Bowel Cancer Screening Pro:gramme Hub"
            }
        },
        {
            "fullUrl": "urn:uuid:10df8624-b5e4-4dbb-8c41-8f915817aeba",
            "resource": {
                "resourceType": "ProcedureRequest",
                "id": "10df8624-b5e4-4dbb-8c41-8f915817aeba",
                "meta": {
                    "profile": [
                        "https://fhir.hl7.org.uk/STU3/StructureDefinition/CareConnect-ProcedureRequest-1"
                    ]
                },
                "status": "unknown",
                "intent": "order",
                "code": {
                    "text": "unknown"
                },
                "subject": {
                    "reference": "urn:uuid:5932f546-edca-4521-bfd7-bfb8ec9e88f2"
                },
                "requester": {
                    "agent": {
                        "reference": "urn:uuid:53c3ed88-482d-4112-becc-2b89b5b0ee8e"
                    },
                    "onBehalfOf": {
                        "reference": "urn:uuid:a03346bd-fdd4-4883-b1fa-339f283ac8eb"
                    }
                },
                "performer": {
                    "reference": "urn:uuid:ef8ebd08-841d-4d6e-8a99-d84632f3b696"
                },
                "note": [
                    {
                        "text": "COELIAC"
                    }
                ]
            }
        },
        {
            "fullUrl": "urn:uuid:1847ee61-d2ca-4194-9fa3-6ed68b38080d",
            "resource": {
                "resourceType": "DiagnosticReport",
                "id": "1847ee61-d2ca-4194-9fa3-6ed68b38080d",
                "meta": {
                    "profile": [
                        "https://fhir.hl7.org.uk/STU3/StructureDefinition/CareConnect-DiagnosticReport-1"
                    ]
                },
                "identifier": [
                    {
                        "value": "34/1"
                    }
                ],
                "basedOn": [
                    {
                        "reference": "urn:uuid:10df8624-b5e4-4dbb-8c41-8f915817aeba"
                    }
                ],
                "status": "unknown",
                "code": {
                    "coding": [
                        {
                            "system": "http://snomed.info/sct",
                            "code": "721981007",
                            "display": "Diagnostic studies report"
                        }
                    ]
                },
                "subject": {
                    "reference": "urn:uuid:5932f546-edca-4521-bfd7-bfb8ec9e88f2"
                },
                "issued": "2009-11-10T12:45:00.000+01:00",
                "performer": [
                    {
                        "actor": {
                            "reference": "urn:uuid:b6204247-55c2-44cf-8f27-d7c0bb872eb5"
                        }
                    },
                    {
                        "actor": {
                            "reference": "urn:uuid:ef8ebd08-841d-4d6e-8a99-d84632f3b696"
                        }
                    }
                ],
                "specimen": [
                    {
                        "reference": "urn:uuid:7338ccbd-3a16-4664-8212-64b5cef2e39c"
                    }
                ],
                "result": [
                    {
                        "reference": "urn:uuid:4bb2fd25-4871-4a5a-a3ec-21dc2d4577d2"
                    }
                ]
            }
        },
        {
            "fullUrl": "urn:uuid:7338ccbd-3a16-4664-8212-64b5cef2e39c",
            "resource": {
                "resourceType": "Specimen",
                "id": "7338ccbd-3a16-4664-8212-64b5cef2e39c",
                "meta": {
                    "profile": [
                        "https://fhir.hl7.org.uk/STU3/StructureDefinition/CareConnect-Specimen-1"
                    ]
                },
                "type": {
                    "coding": [
                        {
                            "system": "http://snomed.info/sct",
                            "display": "Faeces"
                        }
                    ]
                },
                "subject": {
                    "reference": "urn:uuid:5932f546-edca-4521-bfd7-bfb8ec9e88f2"
                }
            }
        },
        {
            "fullUrl": "urn:uuid:4bb2fd25-4871-4a5a-a3ec-21dc2d4577d2",
            "resource": {
                "resourceType": "Observation",
                "id": "4bb2fd25-4871-4a5a-a3ec-21dc2d4577d2",
                "meta": {
                    "profile": [
                        "https://fhir.hl7.org.uk/STU3/StructureDefinition/CareConnect-Observation-1"
                    ]
                },
                "status": "unknown",
                "code": {
                    "coding": [
                        {
                            "system": "http://snomed.info/sct",
                            "code": "368481000000103",
                            "display": "BCS?:FOB result"
                        }
                    ]
                },
                "subject": {
                    "reference": "urn:uuid:5932f546-edca-4521-bfd7-bfb8ec9e88f2"
                },
                "performer": [
                    {
                        "reference": "urn:uuid:b6204247-55c2-44cf-8f27-d7c0bb872eb5"
                    },
                    {
                        "reference": "urn:uuid:ef8ebd08-841d-4d6e-8a99-d84632f3b696"
                    }
                ],
                "valueCodeableConcept": {
                    "coding": [
                        {
                            "system": "http://snomed.info/sct",
                            "code": "375211000000108",
                            "display": "Bowel cancer screening programme FOB test normal (finding)"
                        }
                    ]
                },
                "comment": "Normal. Sent following an initial single Negative result or following 2 Negative results after an initial Weak Positive",
                "specimen": {
                    "reference": "urn:uuid:7338ccbd-3a16-4664-8212-64b5cef2e39c"
                }
            }
        }
    ]
}