{
    "resourceType": "Bundle",
    "id": "08ff6d8b-1793-489b-a695-3990fbf9f769",
    "meta": {
        "lastUpdated": "2021-06-07T12:31:10.737+01:00",
        "profile": [ "https://fhir.nhs.uk/STU3/StructureDefinition/ITK-Message-Bundle-1" ]
    },
    "identifier": {
        "system": "https://tools.ietf.org/html/rfc4122",
        "value": "c72080f7-15ee-41bd-a382-581fc5f79a8c"
    },
    "type": "message",
    "entry": [ {
        "fullUrl": "urn:uuid:ddbfd2e4-893b-4676-9184-af794ec57167",
        "resource": {
            "resourceType": "MessageHeader",
            "id": "ddbfd2e4-893b-4676-9184-af794ec57167",
            "meta": {
                "profile": [ "https://fhir.nhs.uk/STU3/StructureDefinition/ITK-MessageHeader-2" ]
            },
            "extension": [ {
                "url": "https://fhir.nhs.uk/STU3/StructureDefinition/Extension-ITK-MessageHandling-2",
                "extension": [ {
                    "url": "BusAckRequested",
                    "valueBoolean": true
                }, {
                    "url": "InfAckRequested",
                    "valueBoolean": true
                }, {
                    "url": "RecipientType",
                    "valueCoding": {
                        "system": "https://fhir.nhs.uk/STU3/CodeSystem/ITK-RecipientType-1",
                        "code": "FA",
                        "display": "For Action"
                    }
                }, {
                    "url": "SenderReference",
                    "valueString": "None"
                }, {
                    "url": "LocalExtension",
                    "valueString": "None"
                } ]
            } ],
            "event": {
                "system": "https://fhir.nhs.uk/STU3/CodeSystem/ITK-MessageEvent-2",
                "code": "ITK012M",
                "display": "ITK National Pathology"
            },
            "receiver": {
                "reference": "urn:uuid:b00c9950-753c-449d-8089-f27a64d1adf1"
            },
            "sender": {
                "reference": "urn:uuid:b6494df8-7be1-4321-84b5-c8b2924cc509"
            },
            "timestamp": "2009-11-13T15:19:00.000+00:00",
            "source": {
                "endpoint": "lab_results_mailbox"
            },
            "responsible": {
                "reference": "urn:uuid:b6494df8-7be1-4321-84b5-c8b2924cc509"
            },
            "focus": [ {
                "reference": "urn:uuid:2f947520-7ef9-43f4-a0a2-31ad957d7bef"
            } ]
        }
    }, {
        "fullUrl": "urn:uuid:273835c0-5f7f-43ac-a535-fe66a9e6ad8a",
        "resource": {
            "resourceType": "Patient",
            "id": "273835c0-5f7f-43ac-a535-fe66a9e6ad8a",
            "meta": {
                "profile": [ "https://fhir.hl7.org.uk/STU3/StructureDefinition/CareConnect-Patient-1" ]
            },
            "name": [ {
                "use": "official",
                "family": "ABLE",
                "given": [ "JEREMIAS" ]
            } ],
            "gender": "male",
            "birthDate": "1915-12-01"
        }
    }, {
        "fullUrl": "urn:uuid:0d698870-769f-4446-9fdf-25d3e3aaa1c4",
        "resource": {
            "resourceType": "Practitioner",
            "id": "0d698870-769f-4446-9fdf-25d3e3aaa1c4",
            "meta": {
                "profile": [ "https://fhir.hl7.org.uk/STU3/StructureDefinition/CareConnect-Practitioner-1" ]
            },
            "name": [ {
                "text": "BCSP Hub Manager"
            } ]
        }
    }, {
        "fullUrl": "urn:uuid:b00c9950-753c-449d-8089-f27a64d1adf1",
        "resource": {
            "resourceType": "Organization",
            "id": "b00c9950-753c-449d-8089-f27a64d1adf1",
            "meta": {
                "profile": [ "https://fhir.hl7.org.uk/STU3/StructureDefinition/CareConnect-Organization-1" ]
            }
        }
    }, {
        "fullUrl": "urn:uuid:b60e81b5-4415-42ac-b2d7-6587b9b9bfd3",
        "resource": {
            "resourceType": "Practitioner",
            "id": "b60e81b5-4415-42ac-b2d7-6587b9b9bfd3",
            "meta": {
                "profile": [ "https://fhir.hl7.org.uk/STU3/StructureDefinition/CareConnect-Practitioner-1" ]
            }
        }
    }, {
        "fullUrl": "urn:uuid:b6494df8-7be1-4321-84b5-c8b2924cc509",
        "resource": {
            "resourceType": "Organization",
            "id": "b6494df8-7be1-4321-84b5-c8b2924cc509",
            "meta": {
                "profile": [ "https://fhir.hl7.org.uk/STU3/StructureDefinition/CareConnect-Organization-1" ]
            },
            "type": [ {
                "coding": [ {
                    "code": "dept",
                    "display": "UNKNOWN"
                } ]
            } ],
            "name": "Southern Bowel Cancer Screening Pro:gramme Hub"
        }
    }, {
        "fullUrl": "urn:uuid:5b1f33ee-5a1f-4cdb-9c64-33383c83efcc",
        "resource": {
            "resourceType": "ProcedureRequest",
            "id": "5b1f33ee-5a1f-4cdb-9c64-33383c83efcc",
            "meta": {
                "profile": [ "https://fhir.hl7.org.uk/STU3/StructureDefinition/CareConnect-ProcedureRequest-1" ]
            },
            "status": "active",
            "intent": "order",
            "code": {
                "coding": [ {
                    "system": "http://snomed.info/sct",
                    "code": "15220000",
                    "display": "Laboratory test (procedure)"
                } ]
            },
            "subject": {
                "reference": "urn:uuid:273835c0-5f7f-43ac-a535-fe66a9e6ad8a"
            },
            "requester": {
                "agent": {
                    "reference": "urn:uuid:0d698870-769f-4446-9fdf-25d3e3aaa1c4"
                },
                "onBehalfOf": {
                    "reference": "urn:uuid:b00c9950-753c-449d-8089-f27a64d1adf1"
                }
            },
            "performer": {
                "reference": "urn:uuid:b60e81b5-4415-42ac-b2d7-6587b9b9bfd3"
            }
        }
    }, {
        "fullUrl": "urn:uuid:2f947520-7ef9-43f4-a0a2-31ad957d7bef",
        "resource": {
            "resourceType": "DiagnosticReport",
            "id": "2f947520-7ef9-43f4-a0a2-31ad957d7bef",
            "meta": {
                "profile": [ "https://fhir.hl7.org.uk/STU3/StructureDefinition/CareConnect-DiagnosticReport-1" ]
            },
            "identifier": [ {
                "system": "https://tools.ietf.org/html/rfc4122",
                "value": "34/1"
            } ],
            "basedOn": [ {
                "reference": "urn:uuid:5b1f33ee-5a1f-4cdb-9c64-33383c83efcc"
            } ],
            "status": "unknown",
            "code": {
                "coding": [ {
                    "system": "http://snomed.info/sct",
                    "code": "721981007",
                    "display": "Diagnostic studies report"
                } ]
            },
            "subject": {
                "reference": "urn:uuid:273835c0-5f7f-43ac-a535-fe66a9e6ad8a"
            },
            "issued": "2009-11-10T11:45:00.000+00:00",
            "performer": [ {
                "actor": {
                    "reference": "urn:uuid:b6494df8-7be1-4321-84b5-c8b2924cc509"
                }
            }, {
                "actor": {
                    "reference": "urn:uuid:b60e81b5-4415-42ac-b2d7-6587b9b9bfd3"
                }
            } ],
            "specimen": [ {
                "reference": "urn:uuid:0508b40a-b457-4c6e-9daf-cec76d60dbd7"
            } ],
            "result": [ {
                "reference": "urn:uuid:8b36be63-8da2-46b2-81bb-44d6085ed998"
            } ]
        }
    }, {
        "fullUrl": "urn:uuid:0508b40a-b457-4c6e-9daf-cec76d60dbd7",
        "resource": {
            "resourceType": "Specimen",
            "id": "0508b40a-b457-4c6e-9daf-cec76d60dbd7",
            "meta": {
                "profile": [ "https://fhir.hl7.org.uk/STU3/StructureDefinition/CareConnect-Specimen-1" ]
            },
            "type": {
                "coding": [ {
                    "system": "http://snomed.info/sct",
                    "display": "Faeces"
                } ]
            },
            "subject": {
                "reference": "urn:uuid:273835c0-5f7f-43ac-a535-fe66a9e6ad8a"
            }
        }
    }, {
        "fullUrl": "urn:uuid:8b36be63-8da2-46b2-81bb-44d6085ed998",
        "resource": {
            "resourceType": "Observation",
            "id": "8b36be63-8da2-46b2-81bb-44d6085ed998",
            "meta": {
                "profile": [ "https://fhir.hl7.org.uk/STU3/StructureDefinition/CareConnect-Observation-1" ]
            },
            "status": "unknown",
            "code": {
                "coding": [ {
                    "system": "http://snomed.info/sct",
                    "code": "368481000000103",
                    "display": "BCS?:FOB result"
                } ]
            },
            "subject": {
                "reference": "urn:uuid:273835c0-5f7f-43ac-a535-fe66a9e6ad8a"
            },
            "performer": [ {
                "reference": "urn:uuid:b6494df8-7be1-4321-84b5-c8b2924cc509"
            }, {
                "reference": "urn:uuid:b60e81b5-4415-42ac-b2d7-6587b9b9bfd3"
            } ],
            "valueCodeableConcept": {
                "coding": [ {
                    "system": "http://snomed.info/sct",
                    "code": "384241000000100",
                    "display": "Bowel cancer screening prog FOB tst incomplete participation (finding)"
                } ]
            },
            "specimen": {
                "reference": "urn:uuid:0508b40a-b457-4c6e-9daf-cec76d60dbd7"
            }
        }
    } ]
}