{
    "resourceType": "Bundle",
    "id": "f320c4e2-8922-419c-93be-3c12243d6916",
    "meta": {
        "lastUpdated": "2021-06-07T12:30:47.748+01:00",
        "profile": [ "https://fhir.nhs.uk/STU3/StructureDefinition/ITK-Message-Bundle-1" ]
    },
    "identifier": {
        "system": "https://tools.ietf.org/html/rfc4122",
        "value": "b30b97ac-fb01-4ac3-9cf9-3525d1c7134c"
    },
    "type": "message",
    "entry": [ {
        "fullUrl": "urn:uuid:f4679d82-775e-4f14-a126-2c2734c07ed3",
        "resource": {
            "resourceType": "MessageHeader",
            "id": "f4679d82-775e-4f14-a126-2c2734c07ed3",
            "meta": {
                "profile": [ "https://fhir.nhs.uk/STU3/StructureDefinition/ITK-MessageHeader-2" ]
            },
            "extension": [ {
                "url": "https://fhir.nhs.uk/STU3/StructureDefinition/Extension-ITK-MessageHandling-2",
                "extension": [ {
                    "url": "BusAckRequested",
                    "valueBoolean": true
                }, {
                    "url": "InfAckRequested",
                    "valueBoolean": true
                }, {
                    "url": "RecipientType",
                    "valueCoding": {
                        "system": "https://fhir.nhs.uk/STU3/CodeSystem/ITK-RecipientType-1",
                        "code": "FA",
                        "display": "For Action"
                    }
                }, {
                    "url": "SenderReference",
                    "valueString": "None"
                }, {
                    "url": "LocalExtension",
                    "valueString": "None"
                } ]
            } ],
            "event": {
                "system": "https://fhir.nhs.uk/STU3/CodeSystem/ITK-MessageEvent-2",
                "code": "ITK012M",
                "display": "ITK National Pathology"
            },
            "receiver": {
                "reference": "urn:uuid:f18a2316-520a-42ee-a078-31b2745a199c"
            },
            "sender": {
                "reference": "urn:uuid:bb79e047-82e0-4d9d-a46c-044312aa7e3c"
            },
            "timestamp": "2009-11-13T15:19:00.000+00:00",
            "source": {
                "endpoint": "lab_results_mailbox"
            },
            "responsible": {
                "reference": "urn:uuid:bb79e047-82e0-4d9d-a46c-044312aa7e3c"
            },
            "focus": [ {
                "reference": "urn:uuid:6b7d5c1e-9091-4e26-af7a-f0875ab4e9f9"
            } ]
        }
    }, {
        "fullUrl": "urn:uuid:530adf0d-17d0-4f68-9423-07e49c31bcef",
        "resource": {
            "resourceType": "Patient",
            "id": "530adf0d-17d0-4f68-9423-07e49c31bcef",
            "meta": {
                "profile": [ "https://fhir.hl7.org.uk/STU3/StructureDefinition/CareConnect-Patient-1" ]
            },
            "name": [ {
                "use": "official",
                "family": "ABLE",
                "given": [ "JEREMIAS" ]
            } ],
            "gender": "male",
            "birthDate": "1915-12-01"
        }
    }, {
        "fullUrl": "urn:uuid:72aff578-9fc9-44cd-a0ae-aff91fdb8875",
        "resource": {
            "resourceType": "Practitioner",
            "id": "72aff578-9fc9-44cd-a0ae-aff91fdb8875",
            "meta": {
                "profile": [ "https://fhir.hl7.org.uk/STU3/StructureDefinition/CareConnect-Practitioner-1" ]
            },
            "name": [ {
                "text": "BCSP Hub Manager"
            } ]
        }
    }, {
        "fullUrl": "urn:uuid:f18a2316-520a-42ee-a078-31b2745a199c",
        "resource": {
            "resourceType": "Organization",
            "id": "f18a2316-520a-42ee-a078-31b2745a199c",
            "meta": {
                "profile": [ "https://fhir.hl7.org.uk/STU3/StructureDefinition/CareConnect-Organization-1" ]
            }
        }
    }, {
        "fullUrl": "urn:uuid:478671e8-252b-43c2-9cc8-2d893e22688b",
        "resource": {
            "resourceType": "Practitioner",
            "id": "478671e8-252b-43c2-9cc8-2d893e22688b",
            "meta": {
                "profile": [ "https://fhir.hl7.org.uk/STU3/StructureDefinition/CareConnect-Practitioner-1" ]
            }
        }
    }, {
        "fullUrl": "urn:uuid:bb79e047-82e0-4d9d-a46c-044312aa7e3c",
        "resource": {
            "resourceType": "Organization",
            "id": "bb79e047-82e0-4d9d-a46c-044312aa7e3c",
            "meta": {
                "profile": [ "https://fhir.hl7.org.uk/STU3/StructureDefinition/CareConnect-Organization-1" ]
            },
            "type": [ {
                "coding": [ {
                    "code": "dept",
                    "display": "UNKNOWN"
                } ]
            } ],
            "name": "Southern Bowel Cancer Screening Pro:gramme Hub"
        }
    }, {
        "fullUrl": "urn:uuid:7314bf43-292b-4a38-9793-1c9054adfaa0",
        "resource": {
            "resourceType": "ProcedureRequest",
            "id": "7314bf43-292b-4a38-9793-1c9054adfaa0",
            "meta": {
                "profile": [ "https://fhir.hl7.org.uk/STU3/StructureDefinition/CareConnect-ProcedureRequest-1" ]
            },
            "status": "active",
            "intent": "order",
            "code": {
                "coding": [ {
                    "system": "http://snomed.info/sct",
                    "code": "15220000",
                    "display": "Laboratory test (procedure)"
                } ]
            },
            "subject": {
                "reference": "urn:uuid:530adf0d-17d0-4f68-9423-07e49c31bcef"
            },
            "requester": {
                "agent": {
                    "reference": "urn:uuid:72aff578-9fc9-44cd-a0ae-aff91fdb8875"
                },
                "onBehalfOf": {
                    "reference": "urn:uuid:f18a2316-520a-42ee-a078-31b2745a199c"
                }
            },
            "performer": {
                "reference": "urn:uuid:478671e8-252b-43c2-9cc8-2d893e22688b"
            }
        }
    }, {
        "fullUrl": "urn:uuid:6b7d5c1e-9091-4e26-af7a-f0875ab4e9f9",
        "resource": {
            "resourceType": "DiagnosticReport",
            "id": "6b7d5c1e-9091-4e26-af7a-f0875ab4e9f9",
            "meta": {
                "profile": [ "https://fhir.hl7.org.uk/STU3/StructureDefinition/CareConnect-DiagnosticReport-1" ]
            },
            "identifier": [ {
                "system": "https://tools.ietf.org/html/rfc4122",
                "value": "34/1"
            } ],
            "basedOn": [ {
                "reference": "urn:uuid:7314bf43-292b-4a38-9793-1c9054adfaa0"
            } ],
            "status": "unknown",
            "code": {
                "coding": [ {
                    "system": "http://snomed.info/sct",
                    "code": "721981007",
                    "display": "Diagnostic studies report"
                } ]
            },
            "subject": {
                "reference": "urn:uuid:530adf0d-17d0-4f68-9423-07e49c31bcef"
            },
            "issued": "2009-11-10T11:45:00.000+00:00",
            "performer": [ {
                "actor": {
                    "reference": "urn:uuid:bb79e047-82e0-4d9d-a46c-044312aa7e3c"
                }
            }, {
                "actor": {
                    "reference": "urn:uuid:478671e8-252b-43c2-9cc8-2d893e22688b"
                }
            } ],
            "specimen": [ {
                "reference": "urn:uuid:84e981b6-b90d-480c-8fbf-d18ae4f309d2"
            } ],
            "result": [ {
                "reference": "urn:uuid:bfecc490-6d34-408a-bd0a-d907e88df362"
            } ]
        }
    }, {
        "fullUrl": "urn:uuid:84e981b6-b90d-480c-8fbf-d18ae4f309d2",
        "resource": {
            "resourceType": "Specimen",
            "id": "84e981b6-b90d-480c-8fbf-d18ae4f309d2",
            "meta": {
                "profile": [ "https://fhir.hl7.org.uk/STU3/StructureDefinition/CareConnect-Specimen-1" ]
            },
            "type": {
                "coding": [ {
                    "system": "http://snomed.info/sct",
                    "display": "Faeces"
                } ]
            },
            "subject": {
                "reference": "urn:uuid:530adf0d-17d0-4f68-9423-07e49c31bcef"
            }
        }
    }, {
        "fullUrl": "urn:uuid:bfecc490-6d34-408a-bd0a-d907e88df362",
        "resource": {
            "resourceType": "Observation",
            "id": "bfecc490-6d34-408a-bd0a-d907e88df362",
            "meta": {
                "profile": [ "https://fhir.hl7.org.uk/STU3/StructureDefinition/CareConnect-Observation-1" ]
            },
            "status": "unknown",
            "code": {
                "coding": [ {
                    "system": "http://snomed.info/sct",
                    "code": "884521000000106",
                    "display": "BCSP bowel scope screen test"
                } ]
            },
            "subject": {
                "reference": "urn:uuid:530adf0d-17d0-4f68-9423-07e49c31bcef"
            },
            "performer": [ {
                "reference": "urn:uuid:bb79e047-82e0-4d9d-a46c-044312aa7e3c"
            }, {
                "reference": "urn:uuid:478671e8-252b-43c2-9cc8-2d893e22688b"
            } ],
            "valueCodeableConcept": {
                "coding": [ {
                    "system": "http://snomed.info/sct",
                    "code": "884541000000104",
                    "display": "Bowel scope (flexi-sig) screen?: normal - no further action"
                } ]
            },
            "specimen": {
                "reference": "urn:uuid:84e981b6-b90d-480c-8fbf-d18ae4f309d2"
            }
        }
    } ]
}