{
    "resourceType": "Bundle",
    "id": "8a90f87f-6966-4b5f-b18b-6b0801e152dd",
    "meta": {
        "lastUpdated": "2021-05-31T12:48:16.031+01:00",
        "profile": [
            "https://fhir.nhs.uk/STU3/StructureDefinition/ITK-Message-Bundle-1"
        ]
    },
    "identifier": {
        "system": "https://tools.ietf.org/html/rfc4122",
        "value": "5ea929e2-efb3-436c-be8d-486e533aeb7b"
    },
    "type": "message",
    "entry": [
        {
            "fullUrl": "urn:uuid:ccd8228e-fa82-45f6-85ee-bca2b9f33514",
            "resource": {
                "resourceType": "MessageHeader",
                "id": "ccd8228e-fa82-45f6-85ee-bca2b9f33514",
                "meta": {
                    "profile": [
                        "https://fhir.nhs.uk/STU3/StructureDefinition/ITK-MessageHeader-2"
                    ]
                },
                "extension": [
                    {
                        "url": "https://fhir.nhs.uk/STU3/StructureDefinition/Extension-ITK-MessageHandling-2",
                        "extension": [
                            {
                                "url": "BusAckRequested",
                                "valueBoolean": true
                            },
                            {
                                "url": "InfAckRequested",
                                "valueBoolean": true
                            },
                            {
                                "url": "RecipientType",
                                "valueCoding": {
                                    "system": "https://fhir.nhs.uk/STU3/CodeSystem/ITK-RecipientType-1",
                                    "code": "FA",
                                    "display": "For Action"
                                }
                            },
                            {
                                "url": "SenderReference",
                                "valueString": "None"
                            },
                            {
                                "url": "LocalExtension",
                                "valueString": "None"
                            }
                        ]
                    }
                ],
                "event": {
                    "system": "https://fhir.nhs.uk/STU3/CodeSystem/ITK-MessageEvent-2",
                    "code": "ITK012M",
                    "display": "ITK National Pathology"
                },
                "receiver": {
                    "reference": "urn:uuid:dd5bca7d-6d36-4a53-8cd4-0cf2c2e45d8e"
                },
                "sender": {
                    "reference": "urn:uuid:e9f2aafa-986c-4257-82f2-4056d9d1a878"
                },
                "timestamp": "2009-11-13T15:19:00.000+00:00",
                "source": {
                    "endpoint": "lab_results_mailbox"
                },
                "responsible": {
                    "reference": "urn:uuid:e9f2aafa-986c-4257-82f2-4056d9d1a878"
                },
                "focus": [
                    {
                        "reference": "urn:uuid:db5fdaa6-0e76-4665-bb22-eb27ad079265"
                    }
                ]
            }
        },
        {
            "fullUrl": "urn:uuid:01110af7-4732-4119-bf92-a168b53f4697",
            "resource": {
                "resourceType": "Patient",
                "id": "01110af7-4732-4119-bf92-a168b53f4697",
                "meta": {
                    "profile": [
                        "https://fhir.hl7.org.uk/STU3/StructureDefinition/CareConnect-Patient-1"
                    ]
                },
                "name": [
                    {
                        "use": "official",
                        "family": "EL-ASSAN",
                        "given": [
                            "HABIB"
                        ]
                    }
                ],
                "gender": "male",
                "birthDate": "1957-01-16",
                "address": [
                    {
                        "line": [
                            "HIGHWOOD BUNGALOW",
                            "EXETER",
                            "DEVON"
                        ],
                        "postalCode": "TQ14 4QJ"
                    }
                ]
            }
        },
        {
            "fullUrl": "urn:uuid:26f30629-8d0f-4bad-9c5a-2b44a683c256",
            "resource": {
                "resourceType": "Practitioner",
                "id": "26f30629-8d0f-4bad-9c5a-2b44a683c256",
                "meta": {
                    "profile": [
                        "https://fhir.hl7.org.uk/STU3/StructureDefinition/CareConnect-Practitioner-1"
                    ]
                },
                "name": [
                    {
                        "text": "BCSP Hub Manager"
                    }
                ]
            }
        },
        {
            "fullUrl": "urn:uuid:dd5bca7d-6d36-4a53-8cd4-0cf2c2e45d8e",
            "resource": {
                "resourceType": "Organization",
                "id": "dd5bca7d-6d36-4a53-8cd4-0cf2c2e45d8e",
                "meta": {
                    "profile": [
                        "https://fhir.hl7.org.uk/STU3/StructureDefinition/CareConnect-Organization-1"
                    ]
                }
            }
        },
        {
            "fullUrl": "urn:uuid:c4b9dc96-20d7-4b77-b957-376423a85945",
            "resource": {
                "resourceType": "Practitioner",
                "id": "c4b9dc96-20d7-4b77-b957-376423a85945",
                "meta": {
                    "profile": [
                        "https://fhir.hl7.org.uk/STU3/StructureDefinition/CareConnect-Practitioner-1"
                    ]
                }
            }
        },
        {
            "fullUrl": "urn:uuid:e9f2aafa-986c-4257-82f2-4056d9d1a878",
            "resource": {
                "resourceType": "Organization",
                "id": "e9f2aafa-986c-4257-82f2-4056d9d1a878",
                "meta": {
                    "profile": [
                        "https://fhir.hl7.org.uk/STU3/StructureDefinition/CareConnect-Organization-1"
                    ]
                },
                "type": [
                    {
                        "coding": [
                            {
                                "code": "dept",
                                "display": "UNKNOWN"
                            }
                        ]
                    }
                ],
                "name": "Southern Bowel Cancer Screening Pro:gramme Hub"
            }
        },
        {
            "fullUrl": "urn:uuid:10c83ac0-e58c-41a4-8c44-000999bd8bb9",
            "resource": {
                "resourceType": "ProcedureRequest",
                "id": "10c83ac0-e58c-41a4-8c44-000999bd8bb9",
                "meta": {
                    "profile": [
                        "https://fhir.hl7.org.uk/STU3/StructureDefinition/CareConnect-ProcedureRequest-1"
                    ]
                },
                "status": "active",
                "intent": "order",
                "code": {
                    "coding": [
                        {
                            "system": "http://snomed.info/sct",
                            "code": "15220000",
                            "display": "Laboratory test (procedure)"
                        }
                    ]
                },
                "subject": {
                    "reference": "urn:uuid:01110af7-4732-4119-bf92-a168b53f4697"
                },
                "requester": {
                    "agent": {
                        "reference": "urn:uuid:26f30629-8d0f-4bad-9c5a-2b44a683c256"
                    },
                    "onBehalfOf": {
                        "reference": "urn:uuid:dd5bca7d-6d36-4a53-8cd4-0cf2c2e45d8e"
                    }
                },
                "performer": {
                    "reference": "urn:uuid:c4b9dc96-20d7-4b77-b957-376423a85945"
                }
            }
        },
        {
            "fullUrl": "urn:uuid:db5fdaa6-0e76-4665-bb22-eb27ad079265",
            "resource": {
                "resourceType": "DiagnosticReport",
                "id": "db5fdaa6-0e76-4665-bb22-eb27ad079265",
                "meta": {
                    "profile": [
                        "https://fhir.hl7.org.uk/STU3/StructureDefinition/CareConnect-DiagnosticReport-1"
                    ]
                },
                "identifier": [
                    {
                        "system": "https://tools.ietf.org/html/rfc4122",
                        "value": "34/1"
                    }
                ],
                "basedOn": [
                    {
                        "reference": "urn:uuid:10c83ac0-e58c-41a4-8c44-000999bd8bb9"
                    }
                ],
                "status": "unknown",
                "code": {
                    "coding": [
                        {
                            "system": "http://snomed.info/sct",
                            "code": "721981007",
                            "display": "Diagnostic studies report"
                        }
                    ]
                },
                "subject": {
                    "reference": "urn:uuid:01110af7-4732-4119-bf92-a168b53f4697"
                },
                "issued": "2009-11-10T11:45:00.000+00:00",
                "performer": [
                    {
                        "actor": {
                            "reference": "urn:uuid:e9f2aafa-986c-4257-82f2-4056d9d1a878"
                        }
                    },
                    {
                        "actor": {
                            "reference": "urn:uuid:c4b9dc96-20d7-4b77-b957-376423a85945"
                        }
                    }
                ],
                "specimen": [
                    {
                        "reference": "urn:uuid:4b90813c-dba3-479a-b46f-a1616d394809"
                    }
                ],
                "result": [
                    {
                        "reference": "urn:uuid:8ba067dd-fa9a-45a9-b8f8-c497be78f9bb"
                    }
                ]
            }
        },
        {
            "fullUrl": "urn:uuid:4b90813c-dba3-479a-b46f-a1616d394809",
            "resource": {
                "resourceType": "Specimen",
                "id": "4b90813c-dba3-479a-b46f-a1616d394809",
                "meta": {
                    "profile": [
                        "https://fhir.hl7.org.uk/STU3/StructureDefinition/CareConnect-Specimen-1"
                    ]
                },
                "type": {
                    "coding": [
                        {
                            "system": "http://snomed.info/sct",
                            "display": "Faeces"
                        }
                    ]
                },
                "subject": {
                    "reference": "urn:uuid:01110af7-4732-4119-bf92-a168b53f4697"
                }
            }
        },
        {
            "fullUrl": "urn:uuid:8ba067dd-fa9a-45a9-b8f8-c497be78f9bb",
            "resource": {
                "resourceType": "Observation",
                "id": "8ba067dd-fa9a-45a9-b8f8-c497be78f9bb",
                "meta": {
                    "profile": [
                        "https://fhir.hl7.org.uk/STU3/StructureDefinition/CareConnect-Observation-1"
                    ]
                },
                "status": "unknown",
                "code": {
                    "coding": [
                        {
                            "system": "http://snomed.info/sct",
                            "code": "368481000000103",
                            "display": "BCS?:FOB result"
                        }
                    ]
                },
                "subject": {
                    "reference": "urn:uuid:01110af7-4732-4119-bf92-a168b53f4697"
                },
                "performer": [
                    {
                        "reference": "urn:uuid:e9f2aafa-986c-4257-82f2-4056d9d1a878"
                    },
                    {
                        "reference": "urn:uuid:c4b9dc96-20d7-4b77-b957-376423a85945"
                    }
                ],
                "valueCodeableConcept": {
                    "coding": [
                        {
                            "system": "http://snomed.info/sct",
                            "code": "375211000000108",
                            "display": "Bowel cancer screening programme FOB test normal (finding)"
                        }
                    ]
                },
                "comment": "Normal. Sent following an initial single Negative result or following 2 Negative results after an initial Weak Positive",
                "specimen": {
                    "reference": "urn:uuid:4b90813c-dba3-479a-b46f-a1616d394809"
                }
            }
        }
    ]
}