{
  "resourceType": "Bundle",
  "id": "901d8ce7-03cd-4f89-9faf-86703a2cef74",
  "meta": {
    "lastUpdated": "2021-03-16T17:27:56.878+00:00",
    "profile": [
      "https://fhir.nhs.uk/STU3/StructureDefinition/ITK-Message-Bundle-1"
    ]
  },
  "identifier": {
    "system": "https://tools.ietf.org/html/rfc4122",
    "value": "acf79972-dbb9-41c8-80c6-e4b29cf0e289"
  },
  "type": "message",
  "entry": [
    {
      "fullUrl": "urn:uuid:5f622ca2-4f7b-48eb-8924-bc5bbbc71118",
      "resource": {
        "resourceType": "Patient",
        "id": "5f622ca2-4f7b-48eb-8924-bc5bbbc71118",
        "name": [
          {
            "family": "ABLE",
            "given": [
              "JEREMIAS"
            ]
          }
        ],
        "gender": "male",
        "birthDate": "1915-12-01"
      }
    },
    {
      "fullUrl": "urn:uuid:92b3254f-35f8-4699-9f1b-88384d74c0be",
      "resource": {
        "resourceType": "Practitioner",
        "id": "92b3254f-35f8-4699-9f1b-88384d74c0be",
        "name": [
          {
            "text": "BCSP Hub Manager"
          }
        ]
      }
    },
    {
      "fullUrl": "urn:uuid:8989b584-6b01-499a-b391-b3ac5556d1e2",
      "resource": {
        "resourceType": "Organization",
        "id": "8989b584-6b01-499a-b391-b3ac5556d1e2",
        "type": [
          {
            "coding": [
              {
                "code": "dept",
                "display": "UNKNOWN"
              }
            ]
          }
        ],
        "name": "Southern Bowel Cancer Screening Pro:gramme Hub"
      }
    },
    {
      "fullUrl": "urn:uuid:fc089985-58de-4c24-af74-7892c20ec013",
      "resource": {
        "resourceType": "DiagnosticReport",
        "id": "fc089985-58de-4c24-af74-7892c20ec013",
        "identifier": [
          {
            "value": "34/1"
          }
        ],
        "status": "unknown",
        "code": {
          "coding": [
            {
              "system": "http://snomed.info/sct",
              "code": "721981007",
              "display": "Diagnostic studies report"
            }
          ]
        },
        "subject": {
          "reference": "urn:uuid:5f622ca2-4f7b-48eb-8924-bc5bbbc71118"
        },
        "issued": "2009-11-10T11:45:00.000+00:00",
        "performer": [
          {
            "actor": {
              "reference": "urn:uuid:8989b584-6b01-499a-b391-b3ac5556d1e2"
            }
          }
        ],
        "specimen": [
          {
            "reference": "urn:uuid:ec639b88-e94d-41b7-87bd-4cc00f29e5be"
          }
        ],
        "result": [
          {
            "reference": "urn:uuid:45b4403a-a873-428b-94c2-e85ed2bc8c2d"
          }
        ]
      }
    },
    {
      "fullUrl": "urn:uuid:ec639b88-e94d-41b7-87bd-4cc00f29e5be",
      "resource": {
        "resourceType": "Specimen",
        "id": "ec639b88-e94d-41b7-87bd-4cc00f29e5be",
        "type": {
          "coding": [
            {
              "system": "http://snomed.info/sct",
              "display": "Faeces"
            }
          ]
        },
        "subject": {
          "reference": "urn:uuid:5f622ca2-4f7b-48eb-8924-bc5bbbc71118"
        }
      }
    },
    {
      "fullUrl": "urn:uuid:45b4403a-a873-428b-94c2-e85ed2bc8c2d",
      "resource": {
        "resourceType": "Observation",
        "id": "45b4403a-a873-428b-94c2-e85ed2bc8c2d",
        "status": "unknown",
        "code": {
          "coding": [
            {
              "system": "http://snomed.info/sct",
              "code": "884521000000106",
              "display": "BCSP bowel scope screen test"
            }
          ]
        },
        "subject": {
          "reference": "urn:uuid:5f622ca2-4f7b-48eb-8924-bc5bbbc71118"
        },
        "performer": [
          {
            "reference": "urn:uuid:8989b584-6b01-499a-b391-b3ac5556d1e2"
          }
        ],
        "valueCodeableConcept": {
          "coding": [
            {
              "system": "http://snomed.info/sct",
              "code": "884541000000104",
              "display": "Bowel scope (flexi-sig) screen?: normal - no further action"
            }
          ]
        },
        "specimen": {
          "reference": "urn:uuid:ec639b88-e94d-41b7-87bd-4cc00f29e5be"
        }
      }
    }
  ]
}