{
    "resourceType": "Bundle",
    "id": "29720b6f-e778-4c65-9c6b-a8f758dee88c",
    "meta": {
        "lastUpdated": "2021-06-08T10:53:38.502+01:00",
        "profile": [
            "https://fhir.nhs.uk/STU3/StructureDefinition/ITK-Message-Bundle-1"
        ]
    },
    "identifier": {
        "system": "https://tools.ietf.org/html/rfc4122",
        "value": "4d591efc-02cc-4ef4-af22-af99978bd72c"
    },
    "type": "message",
    "entry": [
        {
            "fullUrl": "urn:uuid:28b724bc-166c-4ff4-afc2-6d91ff4b25ef",
            "resource": {
                "resourceType": "MessageHeader",
                "id": "28b724bc-166c-4ff4-afc2-6d91ff4b25ef",
                "meta": {
                    "profile": [
                        "https://fhir.nhs.uk/STU3/StructureDefinition/ITK-MessageHeader-2"
                    ]
                },
                "extension": [
                    {
                        "url": "https://fhir.nhs.uk/STU3/StructureDefinition/Extension-ITK-MessageHandling-2",
                        "extension": [
                            {
                                "url": "BusAckRequested",
                                "valueBoolean": true
                            },
                            {
                                "url": "InfAckRequested",
                                "valueBoolean": true
                            },
                            {
                                "url": "RecipientType",
                                "valueCoding": {
                                    "system": "https://fhir.nhs.uk/STU3/CodeSystem/ITK-RecipientType-1",
                                    "code": "FA",
                                    "display": "For Action"
                                }
                            },
                            {
                                "url": "SenderReference",
                                "valueString": "None"
                            },
                            {
                                "url": "LocalExtension",
                                "valueString": "None"
                            }
                        ]
                    }
                ],
                "event": {
                    "system": "https://fhir.nhs.uk/STU3/CodeSystem/ITK-MessageEvent-2",
                    "code": "ITK012M",
                    "display": "ITK National Pathology"
                },
                "receiver": {
                    "reference": "urn:uuid:fb79dcdc-1237-4796-b40e-e1d8fc21a3bc"
                },
                "sender": {
                    "reference": "urn:uuid:739c3a39-c106-42d9-af37-963215527282"
                },
                "timestamp": "2009-11-13T15:19:00.000+00:00",
                "source": {
                    "endpoint": "lab_results_mailbox"
                },
                "responsible": {
                    "reference": "urn:uuid:739c3a39-c106-42d9-af37-963215527282"
                },
                "focus": [
                    {
                        "reference": "urn:uuid:02c31bfa-b13a-4761-94b7-af8314f492f4"
                    }
                ]
            }
        },
        {
            "fullUrl": "urn:uuid:f944d1ef-44d8-42ec-8254-25b4018a3500",
            "resource": {
                "resourceType": "Patient",
                "id": "f944d1ef-44d8-42ec-8254-25b4018a3500",
                "meta": {
                    "profile": [
                        "https://fhir.hl7.org.uk/STU3/StructureDefinition/CareConnect-Patient-1"
                    ]
                },
                "identifier": [
                    {
                        "extension": [
                            {
                                "url": "https://fhir.hl7.org.uk/STU3/StructureDefinition/Extension-CareConnect-NHSNumberVerificationStatus-1",
                                "valueCodeableConcept": {
                                    "coding": [
                                        {
                                            "system": "https://fhir.hl7.org.uk/STU3/CodeSystem/CareConnect-NHSNumberVerificationStatus-1",
                                            "code": "01",
                                            "display": "Number present and verified"
                                        }
                                    ]
                                }
                            }
                        ],
                        "system": "https://fhir.nhs.uk/Id/nhs-number",
                        "value": "8982821201"
                    }
                ],
                "name": [
                    {
                        "use": "official",
                        "family": "GRIMSHAW",
                        "given": [
                            "BRETT"
                        ],
                        "prefix": [
                            "CAPT"
                        ]
                    }
                ],
                "gender": "male",
                "birthDate": "1938-02-06",
                "address": [
                    {
                        "line": [
                            "HIGHWOOD BUNGALOW",
                            "EXETER",
                            "DEVON"
                        ],
                        "postalCode": "TQ14 4QJ"
                    }
                ]
            }
        },
        {
            "fullUrl": "urn:uuid:0c870773-2f18-4086-8996-514deba553fe",
            "resource": {
                "resourceType": "Practitioner",
                "id": "0c870773-2f18-4086-8996-514deba553fe",
                "meta": {
                    "profile": [
                        "https://fhir.hl7.org.uk/STU3/StructureDefinition/CareConnect-Practitioner-1"
                    ]
                },
                "name": [
                    {
                        "text": "BCSP Hub Manager"
                    }
                ]
            }
        },
        {
            "fullUrl": "urn:uuid:fb79dcdc-1237-4796-b40e-e1d8fc21a3bc",
            "resource": {
                "resourceType": "Organization",
                "id": "fb79dcdc-1237-4796-b40e-e1d8fc21a3bc",
                "meta": {
                    "profile": [
                        "https://fhir.hl7.org.uk/STU3/StructureDefinition/CareConnect-Organization-1"
                    ]
                }
            }
        },
        {
            "fullUrl": "urn:uuid:10504a62-ffc3-4613-9f89-a9d813549753",
            "resource": {
                "resourceType": "Practitioner",
                "id": "10504a62-ffc3-4613-9f89-a9d813549753",
                "meta": {
                    "profile": [
                        "https://fhir.hl7.org.uk/STU3/StructureDefinition/CareConnect-Practitioner-1"
                    ]
                }
            }
        },
        {
            "fullUrl": "urn:uuid:739c3a39-c106-42d9-af37-963215527282",
            "resource": {
                "resourceType": "Organization",
                "id": "739c3a39-c106-42d9-af37-963215527282",
                "meta": {
                    "profile": [
                        "https://fhir.hl7.org.uk/STU3/StructureDefinition/CareConnect-Organization-1"
                    ]
                },
                "type": [
                    {
                        "coding": [
                            {
                                "code": "dept",
                                "display": "UNKNOWN"
                            }
                        ]
                    }
                ],
                "name": "Southern Bowel Cancer Screening Pro:gramme Hub"
            }
        },
        {
            "fullUrl": "urn:uuid:7d44c108-4b6b-4225-98d7-c9384592b8b7",
            "resource": {
                "resourceType": "ProcedureRequest",
                "id": "7d44c108-4b6b-4225-98d7-c9384592b8b7",
                "meta": {
                    "profile": [
                        "https://fhir.hl7.org.uk/STU3/StructureDefinition/CareConnect-ProcedureRequest-1"
                    ]
                },
                "status": "active",
                "intent": "order",
                "code": {
                    "coding": [
                        {
                            "system": "http://snomed.info/sct",
                            "code": "15220000",
                            "display": "Laboratory test (procedure)"
                        }
                    ]
                },
                "subject": {
                    "reference": "urn:uuid:f944d1ef-44d8-42ec-8254-25b4018a3500"
                },
                "requester": {
                    "agent": {
                        "reference": "urn:uuid:0c870773-2f18-4086-8996-514deba553fe"
                    },
                    "onBehalfOf": {
                        "reference": "urn:uuid:fb79dcdc-1237-4796-b40e-e1d8fc21a3bc"
                    }
                },
                "performer": {
                    "reference": "urn:uuid:10504a62-ffc3-4613-9f89-a9d813549753"
                }
            }
        },
        {
            "fullUrl": "urn:uuid:02c31bfa-b13a-4761-94b7-af8314f492f4",
            "resource": {
                "resourceType": "DiagnosticReport",
                "id": "02c31bfa-b13a-4761-94b7-af8314f492f4",
                "meta": {
                    "profile": [
                        "https://fhir.hl7.org.uk/STU3/StructureDefinition/CareConnect-DiagnosticReport-1"
                    ]
                },
                "identifier": [
                    {
                        "system": "https://tools.ietf.org/html/rfc4122",
                        "value": "34/1"
                    }
                ],
                "basedOn": [
                    {
                        "reference": "urn:uuid:7d44c108-4b6b-4225-98d7-c9384592b8b7"
                    }
                ],
                "status": "unknown",
                "code": {
                    "coding": [
                        {
                            "system": "http://snomed.info/sct",
                            "code": "721981007",
                            "display": "Diagnostic studies report"
                        }
                    ]
                },
                "subject": {
                    "reference": "urn:uuid:f944d1ef-44d8-42ec-8254-25b4018a3500"
                },
                "issued": "2009-11-10T11:45:00.000+00:00",
                "performer": [
                    {
                        "actor": {
                            "reference": "urn:uuid:739c3a39-c106-42d9-af37-963215527282"
                        }
                    },
                    {
                        "actor": {
                            "reference": "urn:uuid:10504a62-ffc3-4613-9f89-a9d813549753"
                        }
                    }
                ],
                "specimen": [
                    {
                        "reference": "urn:uuid:c3108c95-6c10-4e7d-8550-32341d1ce09d"
                    }
                ],
                "result": [
                    {
                        "reference": "urn:uuid:2026c043-6252-4331-9e8c-90fa2f6df407"
                    }
                ]
            }
        },
        {
            "fullUrl": "urn:uuid:c3108c95-6c10-4e7d-8550-32341d1ce09d",
            "resource": {
                "resourceType": "Specimen",
                "id": "c3108c95-6c10-4e7d-8550-32341d1ce09d",
                "meta": {
                    "profile": [
                        "https://fhir.hl7.org.uk/STU3/StructureDefinition/CareConnect-Specimen-1"
                    ]
                },
                "type": {
                    "coding": [
                        {
                            "display": "Faeces"
                        }
                    ]
                },
                "subject": {
                    "reference": "urn:uuid:f944d1ef-44d8-42ec-8254-25b4018a3500"
                }
            }
        },
        {
            "fullUrl": "urn:uuid:2026c043-6252-4331-9e8c-90fa2f6df407",
            "resource": {
                "resourceType": "Observation",
                "id": "2026c043-6252-4331-9e8c-90fa2f6df407",
                "meta": {
                    "profile": [
                        "https://fhir.hl7.org.uk/STU3/StructureDefinition/CareConnect-Observation-1"
                    ]
                },
                "status": "unknown",
                "code": {
                    "coding": [
                        {
                            "system": "http://snomed.info/sct",
                            "code": "368481000000103",
                            "display": "BCS?:FOB result"
                        }
                    ]
                },
                "subject": {
                    "reference": "urn:uuid:f944d1ef-44d8-42ec-8254-25b4018a3500"
                },
                "performer": [
                    {
                        "reference": "urn:uuid:739c3a39-c106-42d9-af37-963215527282"
                    },
                    {
                        "reference": "urn:uuid:10504a62-ffc3-4613-9f89-a9d813549753"
                    }
                ],
                "valueCodeableConcept": {
                    "coding": [
                        {
                            "system": "http://snomed.info/sct",
                            "code": "375211000000108",
                            "display": "Bowel cancer screening programme FOB test normal (finding)"
                        }
                    ]
                },
                "comment": "Normal. Sent following an initial single Negative result or following 2 Negative results after an initial Weak Positive",
                "specimen": {
                    "reference": "urn:uuid:c3108c95-6c10-4e7d-8550-32341d1ce09d"
                }
            }
        }
    ]
}