{
    "resourceType": "Bundle",
    "id": "aa5b82f6-88bf-4d54-9997-5379602a66e4",
    "meta": {
        "lastUpdated": "2021-06-08T10:53:47.487+01:00",
        "profile": [
            "https://fhir.nhs.uk/STU3/StructureDefinition/ITK-Message-Bundle-1"
        ]
    },
    "identifier": {
        "system": "https://tools.ietf.org/html/rfc4122",
        "value": "ebadfc23-b9b1-4483-9b95-089871ee4682"
    },
    "type": "message",
    "entry": [
        {
            "fullUrl": "urn:uuid:4af61ef9-2fd8-4167-8f18-696027d48ad9",
            "resource": {
                "resourceType": "MessageHeader",
                "id": "4af61ef9-2fd8-4167-8f18-696027d48ad9",
                "meta": {
                    "profile": [
                        "https://fhir.nhs.uk/STU3/StructureDefinition/ITK-MessageHeader-2"
                    ]
                },
                "extension": [
                    {
                        "url": "https://fhir.nhs.uk/STU3/StructureDefinition/Extension-ITK-MessageHandling-2",
                        "extension": [
                            {
                                "url": "BusAckRequested",
                                "valueBoolean": true
                            },
                            {
                                "url": "InfAckRequested",
                                "valueBoolean": true
                            },
                            {
                                "url": "RecipientType",
                                "valueCoding": {
                                    "system": "https://fhir.nhs.uk/STU3/CodeSystem/ITK-RecipientType-1",
                                    "code": "FA",
                                    "display": "For Action"
                                }
                            },
                            {
                                "url": "SenderReference",
                                "valueString": "None"
                            },
                            {
                                "url": "LocalExtension",
                                "valueString": "None"
                            }
                        ]
                    }
                ],
                "event": {
                    "system": "https://fhir.nhs.uk/STU3/CodeSystem/ITK-MessageEvent-2",
                    "code": "ITK012M",
                    "display": "ITK National Pathology"
                },
                "receiver": {
                    "reference": "urn:uuid:8e743e03-f3c1-4a0e-aa37-6b60475bf095"
                },
                "sender": {
                    "reference": "urn:uuid:c02525e9-e5fc-40be-b168-6263fdef7697"
                },
                "timestamp": "2009-11-13T15:19:00.000+00:00",
                "source": {
                    "endpoint": "lab_results_mailbox"
                },
                "responsible": {
                    "reference": "urn:uuid:c02525e9-e5fc-40be-b168-6263fdef7697"
                },
                "focus": [
                    {
                        "reference": "urn:uuid:693d9a28-5373-44ed-8535-385eccc83179"
                    }
                ]
            }
        },
        {
            "fullUrl": "urn:uuid:93714136-ec6a-4009-8295-6b8aa798b7cf",
            "resource": {
                "resourceType": "Patient",
                "id": "93714136-ec6a-4009-8295-6b8aa798b7cf",
                "meta": {
                    "profile": [
                        "https://fhir.hl7.org.uk/STU3/StructureDefinition/CareConnect-Patient-1"
                    ]
                },
                "identifier": [
                    {
                        "extension": [
                            {
                                "url": "https://fhir.hl7.org.uk/STU3/StructureDefinition/Extension-CareConnect-NHSNumberVerificationStatus-1",
                                "valueCodeableConcept": {
                                    "coding": [
                                        {
                                            "system": "https://fhir.hl7.org.uk/STU3/CodeSystem/CareConnect-NHSNumberVerificationStatus-1",
                                            "code": "01",
                                            "display": "Number present and verified"
                                        }
                                    ]
                                }
                            }
                        ],
                        "system": "https://fhir.nhs.uk/Id/nhs-number",
                        "value": "9435468969"
                    }
                ],
                "name": [
                    {
                        "use": "official",
                        "family": "VIVATMA",
                        "given": [
                            "SHARADA"
                        ]
                    }
                ],
                "gender": "female",
                "birthDate": "1914-03-08",
                "address": [
                    {
                        "line": [
                            "HIGHWOOD BUNGALOW",
                            "EXETER",
                            "DEVON"
                        ],
                        "postalCode": "TQ14 4QJ"
                    }
                ]
            }
        },
        {
            "fullUrl": "urn:uuid:c6538186-3bc7-406a-89d0-f9fd9151beec",
            "resource": {
                "resourceType": "Practitioner",
                "id": "c6538186-3bc7-406a-89d0-f9fd9151beec",
                "meta": {
                    "profile": [
                        "https://fhir.hl7.org.uk/STU3/StructureDefinition/CareConnect-Practitioner-1"
                    ]
                },
                "name": [
                    {
                        "text": "BCSP Hub Manager"
                    }
                ]
            }
        },
        {
            "fullUrl": "urn:uuid:8e743e03-f3c1-4a0e-aa37-6b60475bf095",
            "resource": {
                "resourceType": "Organization",
                "id": "8e743e03-f3c1-4a0e-aa37-6b60475bf095",
                "meta": {
                    "profile": [
                        "https://fhir.hl7.org.uk/STU3/StructureDefinition/CareConnect-Organization-1"
                    ]
                }
            }
        },
        {
            "fullUrl": "urn:uuid:6fa3ebba-04a0-40fe-bf8a-83c906624b7e",
            "resource": {
                "resourceType": "Practitioner",
                "id": "6fa3ebba-04a0-40fe-bf8a-83c906624b7e",
                "meta": {
                    "profile": [
                        "https://fhir.hl7.org.uk/STU3/StructureDefinition/CareConnect-Practitioner-1"
                    ]
                }
            }
        },
        {
            "fullUrl": "urn:uuid:c02525e9-e5fc-40be-b168-6263fdef7697",
            "resource": {
                "resourceType": "Organization",
                "id": "c02525e9-e5fc-40be-b168-6263fdef7697",
                "meta": {
                    "profile": [
                        "https://fhir.hl7.org.uk/STU3/StructureDefinition/CareConnect-Organization-1"
                    ]
                },
                "type": [
                    {
                        "coding": [
                            {
                                "code": "dept",
                                "display": "UNKNOWN"
                            }
                        ]
                    }
                ],
                "name": "Southern Bowel Cancer Screening Pro:gramme Hub"
            }
        },
        {
            "fullUrl": "urn:uuid:2129f091-a4bc-4ccb-92e4-4b870571717d",
            "resource": {
                "resourceType": "ProcedureRequest",
                "id": "2129f091-a4bc-4ccb-92e4-4b870571717d",
                "meta": {
                    "profile": [
                        "https://fhir.hl7.org.uk/STU3/StructureDefinition/CareConnect-ProcedureRequest-1"
                    ]
                },
                "status": "active",
                "intent": "order",
                "code": {
                    "coding": [
                        {
                            "system": "http://snomed.info/sct",
                            "code": "15220000",
                            "display": "Laboratory test (procedure)"
                        }
                    ]
                },
                "subject": {
                    "reference": "urn:uuid:93714136-ec6a-4009-8295-6b8aa798b7cf"
                },
                "requester": {
                    "agent": {
                        "reference": "urn:uuid:c6538186-3bc7-406a-89d0-f9fd9151beec"
                    },
                    "onBehalfOf": {
                        "reference": "urn:uuid:8e743e03-f3c1-4a0e-aa37-6b60475bf095"
                    }
                },
                "performer": {
                    "reference": "urn:uuid:6fa3ebba-04a0-40fe-bf8a-83c906624b7e"
                },
                "note": [
                    {
                        "text": "COELIAC"
                    }
                ]
            }
        },
        {
            "fullUrl": "urn:uuid:693d9a28-5373-44ed-8535-385eccc83179",
            "resource": {
                "resourceType": "DiagnosticReport",
                "id": "693d9a28-5373-44ed-8535-385eccc83179",
                "meta": {
                    "profile": [
                        "https://fhir.hl7.org.uk/STU3/StructureDefinition/CareConnect-DiagnosticReport-1"
                    ]
                },
                "identifier": [
                    {
                        "system": "https://tools.ietf.org/html/rfc4122",
                        "value": "34/1"
                    }
                ],
                "basedOn": [
                    {
                        "reference": "urn:uuid:2129f091-a4bc-4ccb-92e4-4b870571717d"
                    }
                ],
                "status": "unknown",
                "code": {
                    "coding": [
                        {
                            "system": "http://snomed.info/sct",
                            "code": "721981007",
                            "display": "Diagnostic studies report"
                        }
                    ]
                },
                "subject": {
                    "reference": "urn:uuid:93714136-ec6a-4009-8295-6b8aa798b7cf"
                },
                "issued": "2009-11-10T11:45:00.000+00:00",
                "performer": [
                    {
                        "actor": {
                            "reference": "urn:uuid:c02525e9-e5fc-40be-b168-6263fdef7697"
                        }
                    },
                    {
                        "actor": {
                            "reference": "urn:uuid:6fa3ebba-04a0-40fe-bf8a-83c906624b7e"
                        }
                    }
                ],
                "specimen": [
                    {
                        "reference": "urn:uuid:350d6b0c-4ccb-4962-b6fd-a178438e1db9"
                    }
                ],
                "result": [
                    {
                        "reference": "urn:uuid:47a5cd43-2d59-420a-a4bd-a1890c3bc3ee"
                    }
                ]
            }
        },
        {
            "fullUrl": "urn:uuid:350d6b0c-4ccb-4962-b6fd-a178438e1db9",
            "resource": {
                "resourceType": "Specimen",
                "id": "350d6b0c-4ccb-4962-b6fd-a178438e1db9",
                "meta": {
                    "profile": [
                        "https://fhir.hl7.org.uk/STU3/StructureDefinition/CareConnect-Specimen-1"
                    ]
                },
                "type": {
                    "coding": [
                        {
                            "display": "Faeces"
                        }
                    ]
                },
                "subject": {
                    "reference": "urn:uuid:93714136-ec6a-4009-8295-6b8aa798b7cf"
                }
            }
        },
        {
            "fullUrl": "urn:uuid:47a5cd43-2d59-420a-a4bd-a1890c3bc3ee",
            "resource": {
                "resourceType": "Observation",
                "id": "47a5cd43-2d59-420a-a4bd-a1890c3bc3ee",
                "meta": {
                    "profile": [
                        "https://fhir.hl7.org.uk/STU3/StructureDefinition/CareConnect-Observation-1"
                    ]
                },
                "status": "unknown",
                "code": {
                    "coding": [
                        {
                            "system": "http://snomed.info/sct",
                            "code": "368481000000103",
                            "display": "BCS:FOB result"
                        }
                    ]
                },
                "subject": {
                    "reference": "urn:uuid:93714136-ec6a-4009-8295-6b8aa798b7cf"
                },
                "performer": [
                    {
                        "reference": "urn:uuid:c02525e9-e5fc-40be-b168-6263fdef7697"
                    },
                    {
                        "reference": "urn:uuid:6fa3ebba-04a0-40fe-bf8a-83c906624b7e"
                    }
                ],
                "valueCodeableConcept": {
                    "coding": [
                        {
                            "system": "http://snomed.info/sct",
                            "code": "375211000000108",
                            "display": "Bowel cancer screening programme FOB test normal (finding)"
                        }
                    ]
                },
                "comment": "Normal. Sent following an initial single Negative result or following 2 Negative results after an initial Weak Positive",
                "specimen": {
                    "reference": "urn:uuid:350d6b0c-4ccb-4962-b6fd-a178438e1db9"
                }
            }
        }
    ]
}