{
    "resourceType": "Bundle",
    "id": "c9e35003-d441-4973-af95-8b4e18469a02",
    "meta": {
        "lastUpdated": "2021-05-31T12:48:16.033+01:00",
        "profile": [
            "https://fhir.nhs.uk/STU3/StructureDefinition/ITK-Message-Bundle-1"
        ]
    },
    "identifier": {
        "system": "https://tools.ietf.org/html/rfc4122",
        "value": "93462ab1-65d3-44d2-87d9-6fd8980159e5"
    },
    "type": "message",
    "entry": [
        {
            "fullUrl": "urn:uuid:774a9ced-20a1-40fa-8e7c-4af378d36c9f",
            "resource": {
                "resourceType": "MessageHeader",
                "id": "774a9ced-20a1-40fa-8e7c-4af378d36c9f",
                "meta": {
                    "profile": [
                        "https://fhir.nhs.uk/STU3/StructureDefinition/ITK-MessageHeader-2"
                    ]
                },
                "extension": [
                    {
                        "url": "https://fhir.nhs.uk/STU3/StructureDefinition/Extension-ITK-MessageHandling-2",
                        "extension": [
                            {
                                "url": "BusAckRequested",
                                "valueBoolean": true
                            },
                            {
                                "url": "InfAckRequested",
                                "valueBoolean": true
                            },
                            {
                                "url": "RecipientType",
                                "valueCoding": {
                                    "system": "https://fhir.nhs.uk/STU3/CodeSystem/ITK-RecipientType-1",
                                    "code": "FA",
                                    "display": "For Action"
                                }
                            },
                            {
                                "url": "SenderReference",
                                "valueString": "None"
                            },
                            {
                                "url": "LocalExtension",
                                "valueString": "None"
                            }
                        ]
                    }
                ],
                "event": {
                    "system": "https://fhir.nhs.uk/STU3/CodeSystem/ITK-MessageEvent-2",
                    "code": "ITK012M",
                    "display": "ITK National Pathology"
                },
                "receiver": {
                    "reference": "urn:uuid:3d85c084-19f3-43af-9fb7-bf49105ada4b"
                },
                "sender": {
                    "reference": "urn:uuid:79d330aa-d26e-4e4d-8f30-8f9d1572dfce"
                },
                "timestamp": "2009-11-13T15:19:00.000+00:00",
                "source": {
                    "endpoint": "lab_results_mailbox"
                },
                "responsible": {
                    "reference": "urn:uuid:79d330aa-d26e-4e4d-8f30-8f9d1572dfce"
                },
                "focus": [
                    {
                        "reference": "urn:uuid:9abbdfeb-f51b-4e7f-8ce9-5cdd852f9e09"
                    }
                ]
            }
        },
        {
            "fullUrl": "urn:uuid:959390a1-eba3-4896-8d1d-f3438143a9f0",
            "resource": {
                "resourceType": "Patient",
                "id": "959390a1-eba3-4896-8d1d-f3438143a9f0",
                "meta": {
                    "profile": [
                        "https://fhir.hl7.org.uk/STU3/StructureDefinition/CareConnect-Patient-1"
                    ]
                },
                "name": [
                    {
                        "use": "official",
                        "family": "ABLE",
                        "given": [
                            "JEREMIAS"
                        ]
                    }
                ],
                "gender": "male",
                "birthDate": "1915-12-01"
            }
        },
        {
            "fullUrl": "urn:uuid:ad0d075e-6252-4f1e-8942-0d6cbf3c0169",
            "resource": {
                "resourceType": "Practitioner",
                "id": "ad0d075e-6252-4f1e-8942-0d6cbf3c0169",
                "meta": {
                    "profile": [
                        "https://fhir.hl7.org.uk/STU3/StructureDefinition/CareConnect-Practitioner-1"
                    ]
                },
                "name": [
                    {
                        "text": "BCSP Hub Manager"
                    }
                ]
            }
        },
        {
            "fullUrl": "urn:uuid:3d85c084-19f3-43af-9fb7-bf49105ada4b",
            "resource": {
                "resourceType": "Organization",
                "id": "3d85c084-19f3-43af-9fb7-bf49105ada4b",
                "meta": {
                    "profile": [
                        "https://fhir.hl7.org.uk/STU3/StructureDefinition/CareConnect-Organization-1"
                    ]
                }
            }
        },
        {
            "fullUrl": "urn:uuid:bfbdde1d-e505-4ef1-8e1e-779c0702a00f",
            "resource": {
                "resourceType": "Practitioner",
                "id": "bfbdde1d-e505-4ef1-8e1e-779c0702a00f",
                "meta": {
                    "profile": [
                        "https://fhir.hl7.org.uk/STU3/StructureDefinition/CareConnect-Practitioner-1"
                    ]
                }
            }
        },
        {
            "fullUrl": "urn:uuid:79d330aa-d26e-4e4d-8f30-8f9d1572dfce",
            "resource": {
                "resourceType": "Organization",
                "id": "79d330aa-d26e-4e4d-8f30-8f9d1572dfce",
                "meta": {
                    "profile": [
                        "https://fhir.hl7.org.uk/STU3/StructureDefinition/CareConnect-Organization-1"
                    ]
                },
                "type": [
                    {
                        "coding": [
                            {
                                "code": "dept",
                                "display": "UNKNOWN"
                            }
                        ]
                    }
                ],
                "name": "Southern Bowel Cancer Screening Pro:gramme Hub"
            }
        },
        {
            "fullUrl": "urn:uuid:0c77c92a-52fa-4ecb-9f47-be1253a1f894",
            "resource": {
                "resourceType": "ProcedureRequest",
                "id": "0c77c92a-52fa-4ecb-9f47-be1253a1f894",
                "meta": {
                    "profile": [
                        "https://fhir.hl7.org.uk/STU3/StructureDefinition/CareConnect-ProcedureRequest-1"
                    ]
                },
                "status": "active",
                "intent": "order",
                "code": {
                    "coding": [
                        {
                            "system": "http://snomed.info/sct",
                            "code": "15220000",
                            "display": "Laboratory test (procedure)"
                        }
                    ]
                },
                "subject": {
                    "reference": "urn:uuid:959390a1-eba3-4896-8d1d-f3438143a9f0"
                },
                "requester": {
                    "agent": {
                        "reference": "urn:uuid:ad0d075e-6252-4f1e-8942-0d6cbf3c0169"
                    },
                    "onBehalfOf": {
                        "reference": "urn:uuid:3d85c084-19f3-43af-9fb7-bf49105ada4b"
                    }
                },
                "performer": {
                    "reference": "urn:uuid:bfbdde1d-e505-4ef1-8e1e-779c0702a00f"
                }
            }
        },
        {
            "fullUrl": "urn:uuid:9abbdfeb-f51b-4e7f-8ce9-5cdd852f9e09",
            "resource": {
                "resourceType": "DiagnosticReport",
                "id": "9abbdfeb-f51b-4e7f-8ce9-5cdd852f9e09",
                "meta": {
                    "profile": [
                        "https://fhir.hl7.org.uk/STU3/StructureDefinition/CareConnect-DiagnosticReport-1"
                    ]
                },
                "identifier": [
                    {
                        "system": "https://tools.ietf.org/html/rfc4122",
                        "value": "34/1"
                    }
                ],
                "basedOn": [
                    {
                        "reference": "urn:uuid:0c77c92a-52fa-4ecb-9f47-be1253a1f894"
                    }
                ],
                "status": "unknown",
                "code": {
                    "coding": [
                        {
                            "system": "http://snomed.info/sct",
                            "code": "721981007",
                            "display": "Diagnostic studies report"
                        }
                    ]
                },
                "subject": {
                    "reference": "urn:uuid:959390a1-eba3-4896-8d1d-f3438143a9f0"
                },
                "issued": "2009-11-10T11:45:00.000+00:00",
                "performer": [
                    {
                        "actor": {
                            "reference": "urn:uuid:79d330aa-d26e-4e4d-8f30-8f9d1572dfce"
                        }
                    },
                    {
                        "actor": {
                            "reference": "urn:uuid:bfbdde1d-e505-4ef1-8e1e-779c0702a00f"
                        }
                    }
                ],
                "specimen": [
                    {
                        "reference": "urn:uuid:dfeff9b2-1009-4393-bdef-eec95318caef"
                    }
                ],
                "result": [
                    {
                        "reference": "urn:uuid:46b53cc6-e889-41ab-95b3-68d00fa4c844"
                    }
                ]
            }
        },
        {
            "fullUrl": "urn:uuid:dfeff9b2-1009-4393-bdef-eec95318caef",
            "resource": {
                "resourceType": "Specimen",
                "id": "dfeff9b2-1009-4393-bdef-eec95318caef",
                "meta": {
                    "profile": [
                        "https://fhir.hl7.org.uk/STU3/StructureDefinition/CareConnect-Specimen-1"
                    ]
                },
                "type": {
                    "coding": [
                        {
                            "system": "http://snomed.info/sct",
                            "display": "Faeces"
                        }
                    ]
                },
                "subject": {
                    "reference": "urn:uuid:959390a1-eba3-4896-8d1d-f3438143a9f0"
                }
            }
        },
        {
            "fullUrl": "urn:uuid:46b53cc6-e889-41ab-95b3-68d00fa4c844",
            "resource": {
                "resourceType": "Observation",
                "id": "46b53cc6-e889-41ab-95b3-68d00fa4c844",
                "meta": {
                    "profile": [
                        "https://fhir.hl7.org.uk/STU3/StructureDefinition/CareConnect-Observation-1"
                    ]
                },
                "status": "unknown",
                "code": {
                    "coding": [
                        {
                            "system": "http://snomed.info/sct",
                            "code": "884521000000106",
                            "display": "BCSP bowel scope screen test"
                        }
                    ]
                },
                "subject": {
                    "reference": "urn:uuid:959390a1-eba3-4896-8d1d-f3438143a9f0"
                },
                "performer": [
                    {
                        "reference": "urn:uuid:79d330aa-d26e-4e4d-8f30-8f9d1572dfce"
                    },
                    {
                        "reference": "urn:uuid:bfbdde1d-e505-4ef1-8e1e-779c0702a00f"
                    }
                ],
                "valueCodeableConcept": {
                    "coding": [
                        {
                            "system": "http://snomed.info/sct",
                            "code": "884541000000104",
                            "display": "Bowel scope (flexi-sig) screen?: normal - no further action"
                        }
                    ]
                },
                "specimen": {
                    "reference": "urn:uuid:dfeff9b2-1009-4393-bdef-eec95318caef"
                }
            }
        }
    ]
}