{
    "resourceType": "Bundle",
    "id": "de467e99-e634-4586-bec1-ac811e9dae42",
    "meta": {
        "lastUpdated": "2021-04-27T13:32:37.774+01:00",
        "profile": [
            "https://fhir.nhs.uk/STU3/StructureDefinition/ITK-Message-Bundle-1"
        ]
    },
    "identifier": {
        "system": "https://tools.ietf.org/html/rfc4122",
        "value": "7447c2dd-fcab-4852-af7d-fdef9cd9f116"
    },
    "type": "message",
    "entry": [
        {
            "fullUrl": "urn:uuid:8c4f79b3-1d6f-4783-8cad-b0d0699ba66a",
            "resource": {
                "resourceType": "MessageHeader",
                "id": "8c4f79b3-1d6f-4783-8cad-b0d0699ba66a",
                "meta": {
                    "profile": [
                        "https://fhir.nhs.uk/STU3/StructureDefinition/ITK-MessageHeader-2"
                    ]
                },
                "extension": [
                    {
                        "url": "https://fhir.nhs.uk/STU3/StructureDefinition/Extension-ITK-MessageHandling-2",
                        "extension": [
                            {
                                "url": "BusAckRequested",
                                "valueBoolean": true
                            },
                            {
                                "url": "InfAckRequested",
                                "valueBoolean": true
                            },
                            {
                                "url": "RecipientType",
                                "valueCoding": {
                                    "system": "https://fhir.nhs.uk/STU3/CodeSystem/ITK-RecipientType-1",
                                    "code": "FA",
                                    "display": "For Action"
                                }
                            },
                            {
                                "url": "SenderReference",
                                "valueString": "None"
                            },
                            {
                                "url": "LocalExtension",
                                "valueString": "None"
                            }
                        ]
                    }
                ],
                "event": {
                    "system": "https://fhir.nhs.uk/STU3/CodeSystem/ITK-MessageEvent-2",
                    "code": "ITK012M",
                    "display": "ITK National Pathology"
                },
                "receiver": {
                    "reference": "urn:uuid:0bc59ece-404f-4146-94fb-fde0f4a7300d"
                },
                "sender": {
                    "reference": "urn:uuid:087406f7-9926-403f-9c52-932bb4bb52bd"
                },
                "timestamp": "2009-11-13T15:19:00.000+00:00",
                "source": {
                    "endpoint": "lab_results_mailbox"
                },
                "responsible": {
                    "reference": "urn:uuid:087406f7-9926-403f-9c52-932bb4bb52bd"
                },
                "focus": [
                    {
                        "reference": "urn:uuid:318ab3f4-3a45-4e3f-9310-b41962ec5a1b"
                    }
                ]
            }
        },
        {
            "fullUrl": "urn:uuid:ea7a60a5-82d4-4f74-abdc-44a9e5e4a5e3",
            "resource": {
                "resourceType": "Patient",
                "id": "ea7a60a5-82d4-4f74-abdc-44a9e5e4a5e3",
                "meta": {
                    "profile": [
                        "https://fhir.hl7.org.uk/STU3/StructureDefinition/CareConnect-Patient-1"
                    ]
                },
                "identifier": [
                    {
                        "extension": [
                            {
                                "url": "https://fhir.hl7.org.uk/STU3/StructureDefinition/Extension-CareConnect-NHSNumberVerificationStatus-1",
                                "valueCodeableConcept": {
                                    "coding": [
                                        {
                                            "system": "https://fhir.hl7.org.uk/STU3/CodeSystem/CareConnect-NHSNumberVerificationStatus-1",
                                            "code": "01",
                                            "display": "Number present and verified"
                                        }
                                    ]
                                }
                            }
                        ],
                        "system": "https://fhir.nhs.uk/Id/nhs-number",
                        "value": "8982821201"
                    }
                ],
                "name": [
                    {
                        "use": "official",
                        "family": "GRIMSHAW",
                        "given": [
                            "BRETT"
                        ],
                        "prefix": [
                            "CAPT"
                        ]
                    }
                ],
                "gender": "male",
                "birthDate": "1938-02-06",
                "address": [
                    {
                        "line": [
                            "HIGHWOOD BUNGALOW",
                            "EXETER",
                            "DEVON"
                        ],
                        "postalCode": "TQ14 4QJ"
                    }
                ]
            }
        },
        {
            "fullUrl": "urn:uuid:fb508ded-1280-4c9e-aacd-230e06a18790",
            "resource": {
                "resourceType": "Practitioner",
                "id": "fb508ded-1280-4c9e-aacd-230e06a18790",
                "meta": {
                    "profile": [
                        "https://fhir.hl7.org.uk/STU3/StructureDefinition/CareConnect-Practitioner-1"
                    ]
                },
                "name": [
                    {
                        "text": "BCSP Hub Manager"
                    }
                ]
            }
        },
        {
            "fullUrl": "urn:uuid:0bc59ece-404f-4146-94fb-fde0f4a7300d",
            "resource": {
                "resourceType": "Organization",
                "id": "0bc59ece-404f-4146-94fb-fde0f4a7300d",
                "meta": {
                    "profile": [
                        "https://fhir.hl7.org.uk/STU3/StructureDefinition/CareConnect-Organization-1"
                    ]
                }
            }
        },
        {
            "fullUrl": "urn:uuid:8025edf0-503c-4837-8d3c-8fbb8151f562",
            "resource": {
                "resourceType": "Practitioner",
                "id": "8025edf0-503c-4837-8d3c-8fbb8151f562",
                "meta": {
                    "profile": [
                        "https://fhir.hl7.org.uk/STU3/StructureDefinition/CareConnect-Practitioner-1"
                    ]
                }
            }
        },
        {
            "fullUrl": "urn:uuid:087406f7-9926-403f-9c52-932bb4bb52bd",
            "resource": {
                "resourceType": "Organization",
                "id": "087406f7-9926-403f-9c52-932bb4bb52bd",
                "meta": {
                    "profile": [
                        "https://fhir.hl7.org.uk/STU3/StructureDefinition/CareConnect-Organization-1"
                    ]
                },
                "type": [
                    {
                        "coding": [
                            {
                                "code": "dept",
                                "display": "UNKNOWN"
                            }
                        ]
                    }
                ],
                "name": "Southern Bowel Cancer Screening Pro:gramme Hub"
            }
        },
        {
            "fullUrl": "urn:uuid:586efdcf-c4b2-46c8-a8e7-5db1868d0668",
            "resource": {
                "resourceType": "ProcedureRequest",
                "id": "586efdcf-c4b2-46c8-a8e7-5db1868d0668",
                "meta": {
                    "profile": [
                        "https://fhir.hl7.org.uk/STU3/StructureDefinition/CareConnect-ProcedureRequest-1"
                    ]
                },
                "status": "active",
                "intent": "order",
                "code": {
                    "text": "unknown"
                },
                "subject": {
                    "reference": "urn:uuid:ea7a60a5-82d4-4f74-abdc-44a9e5e4a5e3"
                },
                "requester": {
                    "agent": {
                        "reference": "urn:uuid:fb508ded-1280-4c9e-aacd-230e06a18790"
                    },
                    "onBehalfOf": {
                        "reference": "urn:uuid:0bc59ece-404f-4146-94fb-fde0f4a7300d"
                    }
                },
                "performer": {
                    "reference": "urn:uuid:8025edf0-503c-4837-8d3c-8fbb8151f562"
                }
            }
        },
        {
            "fullUrl": "urn:uuid:318ab3f4-3a45-4e3f-9310-b41962ec5a1b",
            "resource": {
                "resourceType": "DiagnosticReport",
                "id": "318ab3f4-3a45-4e3f-9310-b41962ec5a1b",
                "meta": {
                    "profile": [
                        "https://fhir.hl7.org.uk/STU3/StructureDefinition/CareConnect-DiagnosticReport-1"
                    ]
                },
                "identifier": [
                    {
                        "system": "https://tools.ietf.org/html/rfc4122",
                        "value": "34/1"
                    }
                ],
                "basedOn": [
                    {
                        "reference": "urn:uuid:586efdcf-c4b2-46c8-a8e7-5db1868d0668"
                    }
                ],
                "status": "unknown",
                "code": {
                    "coding": [
                        {
                            "system": "http://snomed.info/sct",
                            "code": "721981007",
                            "display": "Diagnostic studies report"
                        }
                    ]
                },
                "subject": {
                    "reference": "urn:uuid:ea7a60a5-82d4-4f74-abdc-44a9e5e4a5e3"
                },
                "issued": "2009-11-10T11:45:00.000+00:00",
                "performer": [
                    {
                        "actor": {
                            "reference": "urn:uuid:087406f7-9926-403f-9c52-932bb4bb52bd"
                        }
                    },
                    {
                        "actor": {
                            "reference": "urn:uuid:8025edf0-503c-4837-8d3c-8fbb8151f562"
                        }
                    }
                ],
                "specimen": [
                    {
                        "reference": "urn:uuid:16543ff3-8d5c-4009-98de-7c4c9024fa5a"
                    }
                ],
                "result": [
                    {
                        "reference": "urn:uuid:7740148b-a2d1-4aef-9f45-1edbe3a1dc41"
                    }
                ]
            }
        },
        {
            "fullUrl": "urn:uuid:16543ff3-8d5c-4009-98de-7c4c9024fa5a",
            "resource": {
                "resourceType": "Specimen",
                "id": "16543ff3-8d5c-4009-98de-7c4c9024fa5a",
                "meta": {
                    "profile": [
                        "https://fhir.hl7.org.uk/STU3/StructureDefinition/CareConnect-Specimen-1"
                    ]
                },
                "type": {
                    "coding": [
                        {
                            "system": "http://snomed.info/sct",
                            "display": "Faeces"
                        }
                    ]
                },
                "subject": {
                    "reference": "urn:uuid:ea7a60a5-82d4-4f74-abdc-44a9e5e4a5e3"
                }
            }
        },
        {
            "fullUrl": "urn:uuid:7740148b-a2d1-4aef-9f45-1edbe3a1dc41",
            "resource": {
                "resourceType": "Observation",
                "id": "7740148b-a2d1-4aef-9f45-1edbe3a1dc41",
                "meta": {
                    "profile": [
                        "https://fhir.hl7.org.uk/STU3/StructureDefinition/CareConnect-Observation-1"
                    ]
                },
                "status": "unknown",
                "code": {
                    "coding": [
                        {
                            "system": "http://snomed.info/sct",
                            "code": "368481000000103",
                            "display": "BCS?:FOB result"
                        }
                    ]
                },
                "subject": {
                    "reference": "urn:uuid:ea7a60a5-82d4-4f74-abdc-44a9e5e4a5e3"
                },
                "performer": [
                    {
                        "reference": "urn:uuid:087406f7-9926-403f-9c52-932bb4bb52bd"
                    },
                    {
                        "reference": "urn:uuid:8025edf0-503c-4837-8d3c-8fbb8151f562"
                    }
                ],
                "valueCodeableConcept": {
                    "coding": [
                        {
                            "system": "http://snomed.info/sct",
                            "code": "375211000000108",
                            "display": "Bowel cancer screening programme FOB test normal (finding)"
                        }
                    ]
                },
                "comment": "Normal. Sent following an initial single Negative result or following 2 Negative results after an initial Weak Positive",
                "specimen": {
                    "reference": "urn:uuid:16543ff3-8d5c-4009-98de-7c4c9024fa5a"
                }
            }
        }
    ]
}