{
    "resourceType": "Bundle",
    "id": "7d9cd3ee-33bb-4889-9bc3-597b8e7c2754",
    "meta": {
        "lastUpdated": "2021-06-08T10:53:47.489+01:00",
        "profile": [
            "https://fhir.nhs.uk/STU3/StructureDefinition/ITK-Message-Bundle-1"
        ]
    },
    "identifier": {
        "system": "https://tools.ietf.org/html/rfc4122",
        "value": "da462aee-eb65-4c97-b6b6-65126898826e"
    },
    "type": "message",
    "entry": [
        {
            "fullUrl": "urn:uuid:89e60f0c-6082-442e-9dba-6f155998cab0",
            "resource": {
                "resourceType": "MessageHeader",
                "id": "89e60f0c-6082-442e-9dba-6f155998cab0",
                "meta": {
                    "profile": [
                        "https://fhir.nhs.uk/STU3/StructureDefinition/ITK-MessageHeader-2"
                    ]
                },
                "extension": [
                    {
                        "url": "https://fhir.nhs.uk/STU3/StructureDefinition/Extension-ITK-MessageHandling-2",
                        "extension": [
                            {
                                "url": "BusAckRequested",
                                "valueBoolean": true
                            },
                            {
                                "url": "InfAckRequested",
                                "valueBoolean": true
                            },
                            {
                                "url": "RecipientType",
                                "valueCoding": {
                                    "system": "https://fhir.nhs.uk/STU3/CodeSystem/ITK-RecipientType-1",
                                    "code": "FA",
                                    "display": "For Action"
                                }
                            },
                            {
                                "url": "SenderReference",
                                "valueString": "None"
                            },
                            {
                                "url": "LocalExtension",
                                "valueString": "None"
                            }
                        ]
                    }
                ],
                "event": {
                    "system": "https://fhir.nhs.uk/STU3/CodeSystem/ITK-MessageEvent-2",
                    "code": "ITK012M",
                    "display": "ITK National Pathology"
                },
                "receiver": {
                    "reference": "urn:uuid:4728d193-8ce5-4596-90f5-ef0563b3da83"
                },
                "sender": {
                    "reference": "urn:uuid:2e75979c-69f3-44cd-b8c6-65f278137570"
                },
                "timestamp": "2009-11-13T15:19:00.000+00:00",
                "source": {
                    "endpoint": "lab_results_mailbox"
                },
                "responsible": {
                    "reference": "urn:uuid:2e75979c-69f3-44cd-b8c6-65f278137570"
                },
                "focus": [
                    {
                        "reference": "urn:uuid:17efc8b2-8f15-4187-a204-f973eae87e9c"
                    }
                ]
            }
        },
        {
            "fullUrl": "urn:uuid:6712ef92-107b-4b71-b3ba-754ea6792ff3",
            "resource": {
                "resourceType": "Patient",
                "id": "6712ef92-107b-4b71-b3ba-754ea6792ff3",
                "meta": {
                    "profile": [
                        "https://fhir.hl7.org.uk/STU3/StructureDefinition/CareConnect-Patient-1"
                    ]
                },
                "name": [
                    {
                        "use": "official",
                        "family": "ABLE",
                        "given": [
                            "JEREMIAS"
                        ]
                    }
                ],
                "gender": "male",
                "birthDate": "1915-12-01"
            }
        },
        {
            "fullUrl": "urn:uuid:78b0cbf4-d71d-43ca-bf84-e9901aae536e",
            "resource": {
                "resourceType": "Practitioner",
                "id": "78b0cbf4-d71d-43ca-bf84-e9901aae536e",
                "meta": {
                    "profile": [
                        "https://fhir.hl7.org.uk/STU3/StructureDefinition/CareConnect-Practitioner-1"
                    ]
                },
                "name": [
                    {
                        "text": "BCSP Hub Manager"
                    }
                ]
            }
        },
        {
            "fullUrl": "urn:uuid:4728d193-8ce5-4596-90f5-ef0563b3da83",
            "resource": {
                "resourceType": "Organization",
                "id": "4728d193-8ce5-4596-90f5-ef0563b3da83",
                "meta": {
                    "profile": [
                        "https://fhir.hl7.org.uk/STU3/StructureDefinition/CareConnect-Organization-1"
                    ]
                }
            }
        },
        {
            "fullUrl": "urn:uuid:4c2a5d49-b174-4d55-8abf-2456e213a170",
            "resource": {
                "resourceType": "Practitioner",
                "id": "4c2a5d49-b174-4d55-8abf-2456e213a170",
                "meta": {
                    "profile": [
                        "https://fhir.hl7.org.uk/STU3/StructureDefinition/CareConnect-Practitioner-1"
                    ]
                }
            }
        },
        {
            "fullUrl": "urn:uuid:2e75979c-69f3-44cd-b8c6-65f278137570",
            "resource": {
                "resourceType": "Organization",
                "id": "2e75979c-69f3-44cd-b8c6-65f278137570",
                "meta": {
                    "profile": [
                        "https://fhir.hl7.org.uk/STU3/StructureDefinition/CareConnect-Organization-1"
                    ]
                },
                "type": [
                    {
                        "coding": [
                            {
                                "code": "dept",
                                "display": "UNKNOWN"
                            }
                        ]
                    }
                ],
                "name": "Southern Bowel Cancer Screening Pro:gramme Hub"
            }
        },
        {
            "fullUrl": "urn:uuid:18aa1ab5-0395-4b92-9349-9268e95e9a06",
            "resource": {
                "resourceType": "ProcedureRequest",
                "id": "18aa1ab5-0395-4b92-9349-9268e95e9a06",
                "meta": {
                    "profile": [
                        "https://fhir.hl7.org.uk/STU3/StructureDefinition/CareConnect-ProcedureRequest-1"
                    ]
                },
                "status": "active",
                "intent": "order",
                "code": {
                    "coding": [
                        {
                            "system": "http://snomed.info/sct",
                            "code": "15220000",
                            "display": "Laboratory test (procedure)"
                        }
                    ]
                },
                "subject": {
                    "reference": "urn:uuid:6712ef92-107b-4b71-b3ba-754ea6792ff3"
                },
                "requester": {
                    "agent": {
                        "reference": "urn:uuid:78b0cbf4-d71d-43ca-bf84-e9901aae536e"
                    },
                    "onBehalfOf": {
                        "reference": "urn:uuid:4728d193-8ce5-4596-90f5-ef0563b3da83"
                    }
                },
                "performer": {
                    "reference": "urn:uuid:4c2a5d49-b174-4d55-8abf-2456e213a170"
                }
            }
        },
        {
            "fullUrl": "urn:uuid:17efc8b2-8f15-4187-a204-f973eae87e9c",
            "resource": {
                "resourceType": "DiagnosticReport",
                "id": "17efc8b2-8f15-4187-a204-f973eae87e9c",
                "meta": {
                    "profile": [
                        "https://fhir.hl7.org.uk/STU3/StructureDefinition/CareConnect-DiagnosticReport-1"
                    ]
                },
                "identifier": [
                    {
                        "system": "https://tools.ietf.org/html/rfc4122",
                        "value": "34/1"
                    }
                ],
                "basedOn": [
                    {
                        "reference": "urn:uuid:18aa1ab5-0395-4b92-9349-9268e95e9a06"
                    }
                ],
                "status": "unknown",
                "code": {
                    "coding": [
                        {
                            "system": "http://snomed.info/sct",
                            "code": "721981007",
                            "display": "Diagnostic studies report"
                        }
                    ]
                },
                "subject": {
                    "reference": "urn:uuid:6712ef92-107b-4b71-b3ba-754ea6792ff3"
                },
                "issued": "2009-11-10T11:45:00.000+00:00",
                "performer": [
                    {
                        "actor": {
                            "reference": "urn:uuid:2e75979c-69f3-44cd-b8c6-65f278137570"
                        }
                    },
                    {
                        "actor": {
                            "reference": "urn:uuid:4c2a5d49-b174-4d55-8abf-2456e213a170"
                        }
                    }
                ],
                "specimen": [
                    {
                        "reference": "urn:uuid:2c361223-092c-49d2-bc5d-49bb52fe6c80"
                    }
                ],
                "result": [
                    {
                        "reference": "urn:uuid:d06eb40b-8869-4112-883e-f7dd426e6543"
                    }
                ]
            }
        },
        {
            "fullUrl": "urn:uuid:2c361223-092c-49d2-bc5d-49bb52fe6c80",
            "resource": {
                "resourceType": "Specimen",
                "id": "2c361223-092c-49d2-bc5d-49bb52fe6c80",
                "meta": {
                    "profile": [
                        "https://fhir.hl7.org.uk/STU3/StructureDefinition/CareConnect-Specimen-1"
                    ]
                },
                "type": {
                    "coding": [
                        {
                            "display": "Faeces"
                        }
                    ]
                },
                "subject": {
                    "reference": "urn:uuid:6712ef92-107b-4b71-b3ba-754ea6792ff3"
                }
            }
        },
        {
            "fullUrl": "urn:uuid:d06eb40b-8869-4112-883e-f7dd426e6543",
            "resource": {
                "resourceType": "Observation",
                "id": "d06eb40b-8869-4112-883e-f7dd426e6543",
                "meta": {
                    "profile": [
                        "https://fhir.hl7.org.uk/STU3/StructureDefinition/CareConnect-Observation-1"
                    ]
                },
                "status": "unknown",
                "code": {
                    "coding": [
                        {
                            "system": "http://snomed.info/sct",
                            "code": "884521000000106",
                            "display": "BCSP bowel scope screen test"
                        }
                    ]
                },
                "subject": {
                    "reference": "urn:uuid:6712ef92-107b-4b71-b3ba-754ea6792ff3"
                },
                "performer": [
                    {
                        "reference": "urn:uuid:2e75979c-69f3-44cd-b8c6-65f278137570"
                    },
                    {
                        "reference": "urn:uuid:4c2a5d49-b174-4d55-8abf-2456e213a170"
                    }
                ],
                "valueCodeableConcept": {
                    "coding": [
                        {
                            "system": "http://snomed.info/sct",
                            "code": "884541000000104",
                            "display": "Bowel scope (flexi-sig) screen?: normal - no further action"
                        }
                    ]
                },
                "specimen": {
                    "reference": "urn:uuid:2c361223-092c-49d2-bc5d-49bb52fe6c80"
                }
            }
        }
    ]
}