{
    "resourceType": "Bundle",
    "id": "97711e6a-6de5-42b6-89d5-1ff9e5103745",
    "meta": {
        "lastUpdated": "2021-04-22T14:07:54.689+02:00",
        "profile": [
            "https://fhir.nhs.uk/STU3/StructureDefinition/ITK-Message-Bundle-1"
        ]
    },
    "identifier": {
        "system": "https://tools.ietf.org/html/rfc4122",
        "value": "ba793ee7-c1e3-4d0b-a10a-351dc8f3702e"
    },
    "type": "message",
    "entry": [
        {
            "fullUrl": "urn:uuid:b928833a-ec35-4238-b145-23db8782cf58",
            "resource": {
                "resourceType": "MessageHeader",
                "id": "b928833a-ec35-4238-b145-23db8782cf58",
                "meta": {
                    "profile": [
                        "https://fhir.nhs.uk/STU3/StructureDefinition/ITK-MessageHeader-2"
                    ]
                },
                "extension": [
                    {
                        "url": "https://fhir.nhs.uk/STU3/StructureDefinition/Extension-ITK-MessageHandling-2",
                        "extension": [
                            {
                                "url": "BusAckRequested",
                                "valueBoolean": true
                            },
                            {
                                "url": "InfAckRequested",
                                "valueBoolean": true
                            },
                            {
                                "url": "RecipientType",
                                "valueCoding": {
                                    "system": "https://fhir.nhs.uk/STU3/CodeSystem/ITK-RecipientType-1",
                                    "code": "FA",
                                    "display": "For Action"
                                }
                            },
                            {
                                "url": "SenderReference",
                                "valueString": "None"
                            },
                            {
                                "url": "LocalExtension",
                                "valueString": "None"
                            }
                        ]
                    }
                ],
                "event": {
                    "system": "https://fhir.nhs.uk/STU3/CodeSystem/ITK-MessageEvent-2",
                    "code": "ITK012M",
                    "display": "ITK National Pathology"
                },
                "receiver": {
                    "reference": "urn:uuid:cba05629-9b71-4499-92a6-2a6323432354"
                },
                "sender": {
                    "reference": "urn:uuid:e97b96ad-98f5-4200-b408-961c7cc5a7b1"
                },
                "source": {
                    "endpoint": "lab_results_mailbox"
                },
                "responsible": {
                    "reference": "urn:uuid:e97b96ad-98f5-4200-b408-961c7cc5a7b1"
                },
                "focus": [
                    {
                        "reference": "urn:uuid:09964e43-7922-437c-bb69-83ee468aca7b"
                    }
                ]
            }
        },
        {
            "fullUrl": "urn:uuid:b60feb6c-4d7d-41b9-83a2-62953612026d",
            "resource": {
                "resourceType": "Patient",
                "id": "b60feb6c-4d7d-41b9-83a2-62953612026d",
                "meta": {
                    "profile": [
                        "https://fhir.hl7.org.uk/STU3/StructureDefinition/CareConnect-Patient-1"
                    ]
                },
                "identifier": [
                    {
                        "system": "https://fhir.nhs.uk/Id/nhs-number",
                        "value": "8982821201"
                    }
                ],
                "name": [
                    {
                        "family": "GRIMSHAW",
                        "given": [
                            "BRETT"
                        ],
                        "prefix": [
                            "CAPT"
                        ]
                    }
                ],
                "gender": "male",
                "birthDate": "1938-02-06",
                "address": [
                    {
                        "line": [
                            "HIGHWOOD BUNGALOW",
                            "EXETER",
                            "DEVON"
                        ],
                        "postalCode": "TQ14 4QJ"
                    }
                ]
            }
        },
        {
            "fullUrl": "urn:uuid:2a9c2ae4-d62b-4b0c-a83c-2ae6c6eed26a",
            "resource": {
                "resourceType": "Practitioner",
                "id": "2a9c2ae4-d62b-4b0c-a83c-2ae6c6eed26a",
                "meta": {
                    "profile": [
                        "https://fhir.hl7.org.uk/STU3/StructureDefinition/CareConnect-Practitioner-1"
                    ]
                },
                "name": [
                    {
                        "text": "BCSP Hub Manager"
                    }
                ]
            }
        },
        {
            "fullUrl": "urn:uuid:cba05629-9b71-4499-92a6-2a6323432354",
            "resource": {
                "resourceType": "Organization",
                "id": "cba05629-9b71-4499-92a6-2a6323432354",
                "meta": {
                    "profile": [
                        "https://fhir.hl7.org.uk/STU3/StructureDefinition/CareConnect-Organization-1"
                    ]
                }
            }
        },
        {
            "fullUrl": "urn:uuid:bbb7d8ec-e8c6-41bb-b683-7a7e658c1a6b",
            "resource": {
                "resourceType": "Practitioner",
                "id": "bbb7d8ec-e8c6-41bb-b683-7a7e658c1a6b",
                "meta": {
                    "profile": [
                        "https://fhir.hl7.org.uk/STU3/StructureDefinition/CareConnect-Practitioner-1"
                    ]
                }
            }
        },
        {
            "fullUrl": "urn:uuid:e97b96ad-98f5-4200-b408-961c7cc5a7b1",
            "resource": {
                "resourceType": "Organization",
                "id": "e97b96ad-98f5-4200-b408-961c7cc5a7b1",
                "meta": {
                    "profile": [
                        "https://fhir.hl7.org.uk/STU3/StructureDefinition/CareConnect-Organization-1"
                    ]
                },
                "type": [
                    {
                        "coding": [
                            {
                                "code": "dept",
                                "display": "UNKNOWN"
                            }
                        ]
                    }
                ],
                "name": "Southern Bowel Cancer Screening Pro:gramme Hub"
            }
        },
        {
            "fullUrl": "urn:uuid:be015351-1747-47b3-a209-2d14a7fe9943",
            "resource": {
                "resourceType": "ProcedureRequest",
                "id": "be015351-1747-47b3-a209-2d14a7fe9943",
                "meta": {
                    "profile": [
                        "https://fhir.hl7.org.uk/STU3/StructureDefinition/CareConnect-ProcedureRequest-1"
                    ]
                },
                "intent": "order",
                "code": {
                    "text": "unknown"
                },
                "subject": {
                    "reference": "urn:uuid:b60feb6c-4d7d-41b9-83a2-62953612026d"
                },
                "requester": {
                    "agent": {
                        "reference": "urn:uuid:2a9c2ae4-d62b-4b0c-a83c-2ae6c6eed26a"
                    },
                    "onBehalfOf": {
                        "reference": "urn:uuid:cba05629-9b71-4499-92a6-2a6323432354"
                    }
                },
                "performer": {
                    "reference": "urn:uuid:bbb7d8ec-e8c6-41bb-b683-7a7e658c1a6b"
                }
            }
        },
        {
            "fullUrl": "urn:uuid:09964e43-7922-437c-bb69-83ee468aca7b",
            "resource": {
                "resourceType": "DiagnosticReport",
                "id": "09964e43-7922-437c-bb69-83ee468aca7b",
                "meta": {
                    "profile": [
                        "https://fhir.hl7.org.uk/STU3/StructureDefinition/CareConnect-DiagnosticReport-1"
                    ]
                },
                "identifier": [
                    {
                        "value": "34/1"
                    }
                ],
                "basedOn": [
                    {
                        "reference": "urn:uuid:be015351-1747-47b3-a209-2d14a7fe9943"
                    }
                ],
                "status": "unknown",
                "code": {
                    "coding": [
                        {
                            "system": "http://snomed.info/sct",
                            "code": "721981007",
                            "display": "Diagnostic studies report"
                        }
                    ]
                },
                "subject": {
                    "reference": "urn:uuid:b60feb6c-4d7d-41b9-83a2-62953612026d"
                },
                "issued": "2009-11-10T12:45:00.000+01:00",
                "performer": [
                    {
                        "actor": {
                            "reference": "urn:uuid:e97b96ad-98f5-4200-b408-961c7cc5a7b1"
                        }
                    },
                    {
                        "actor": {
                            "reference": "urn:uuid:bbb7d8ec-e8c6-41bb-b683-7a7e658c1a6b"
                        }
                    }
                ],
                "specimen": [
                    {
                        "reference": "urn:uuid:b105d3e1-d9f5-411c-aac3-fa059ef427d7"
                    }
                ],
                "result": [
                    {
                        "reference": "urn:uuid:fbd08c02-4707-420f-ba8a-e9c6fe2d5ecb"
                    }
                ]
            }
        },
        {
            "fullUrl": "urn:uuid:b105d3e1-d9f5-411c-aac3-fa059ef427d7",
            "resource": {
                "resourceType": "Specimen",
                "id": "b105d3e1-d9f5-411c-aac3-fa059ef427d7",
                "meta": {
                    "profile": [
                        "https://fhir.hl7.org.uk/STU3/StructureDefinition/CareConnect-Specimen-1"
                    ]
                },
                "type": {
                    "coding": [
                        {
                            "system": "http://snomed.info/sct",
                            "display": "Faeces"
                        }
                    ]
                },
                "subject": {
                    "reference": "urn:uuid:b60feb6c-4d7d-41b9-83a2-62953612026d"
                }
            }
        },
        {
            "fullUrl": "urn:uuid:fbd08c02-4707-420f-ba8a-e9c6fe2d5ecb",
            "resource": {
                "resourceType": "Observation",
                "id": "fbd08c02-4707-420f-ba8a-e9c6fe2d5ecb",
                "meta": {
                    "profile": [
                        "https://fhir.hl7.org.uk/STU3/StructureDefinition/CareConnect-Observation-1"
                    ]
                },
                "status": "unknown",
                "code": {
                    "coding": [
                        {
                            "system": "http://snomed.info/sct",
                            "code": "368481000000103",
                            "display": "BCS?:FOB result"
                        }
                    ]
                },
                "subject": {
                    "reference": "urn:uuid:b60feb6c-4d7d-41b9-83a2-62953612026d"
                },
                "performer": [
                    {
                        "reference": "urn:uuid:e97b96ad-98f5-4200-b408-961c7cc5a7b1"
                    },
                    {
                        "reference": "urn:uuid:bbb7d8ec-e8c6-41bb-b683-7a7e658c1a6b"
                    }
                ],
                "valueCodeableConcept": {
                    "coding": [
                        {
                            "system": "http://snomed.info/sct",
                            "code": "375211000000108",
                            "display": "Bowel cancer screening programme FOB test normal (finding)"
                        }
                    ]
                },
                "comment": "Normal. Sent following an initial single Negative result or following 2 Negative results after an initial Weak Positive",
                "specimen": {
                    "reference": "urn:uuid:b105d3e1-d9f5-411c-aac3-fa059ef427d7"
                }
            }
        }
    ]
}